participant_id,time_gameplayed_utc,time_sent_utc,detail,condition,trial_number,name,inter_time_interval,response_time,response_window,late_response,correct_button
ADMIN-UCSF-,2017-06-19 20:52:22+00:00,2017-06-19 21:06:39+00:00,,Left,0,DG-03-TR-020,500,347.5469947,500,0,1
ADMIN-UCSF-,2017-06-19 20:52:22+00:00,2017-06-19 21:06:39+00:00,,Right,0,DG-03-TR-020,500,500,500,0,0
ADMIN-UCSF-,2017-06-19 20:52:22+00:00,2017-06-19 21:06:39+00:00,,Left,1,DG-03-TR-020,500,327.894032,490,0,1
ADMIN-UCSF-,2017-06-19 20:52:22+00:00,2017-06-19 21:06:39+00:00,,Right,1,DG-03-TR-020,,,,,0
ADMIN-UCSF-,2017-06-19 20:52:22+00:00,2017-06-19 21:06:39+00:00,,Left,2,DG-03-TR-020,500,372.8470206,480,0,1
ADMIN-UCSF-,2017-06-19 20:52:22+00:00,2017-06-19 21:06:39+00:00,,Right,2,DG-03-TR-020,540,251.5249848,540,0,1
ADMIN-UCSF-,2017-06-19 20:52:22+00:00,2017-06-19 21:06:39+00:00,,Left,3,DG-03-TR-020,500,321.821034,460,0,1
ADMIN-UCSF-,2017-06-19 20:52:22+00:00,2017-06-19 21:06:39+00:00,,Right,3,DG-03-TR-020,540,285.2230072,530,0,1
ADMIN-UCSF-,2017-06-19 20:52:22+00:00,2017-06-19 21:06:39+00:00,,Left,4,DG-03-TR-020,500,356.9369912,420,0,1
ADMIN-UCSF-,2017-06-19 20:52:22+00:00,2017-06-19 21:06:39+00:00,,Right,4,DG-03-TR-020,540,273.8059759,520,0,1
ADMIN-UCSF-,2017-06-19 20:52:22+00:00,2017-06-19 21:06:39+00:00,,Left,5,DG-03-TR-020,500,334.3439698,340,0,1
ADMIN-UCSF-,2017-06-19 20:52:22+00:00,2017-06-19 21:06:39+00:00,,Right,5,DG-03-TR-020,540,259.411037,500,0,1
ADMIN-UCSF-,2017-06-19 20:52:22+00:00,2017-06-19 21:06:39+00:00,,Left,6,DG-03-TR-020,500,319.0100193,180,1,0
ADMIN-UCSF-,2017-06-19 20:52:22+00:00,2017-06-19 21:06:39+00:00,,Right,6,DG-03-TR-020,540,297.5389957,460,0,1
ADMIN-UCSF-,2017-06-19 20:52:22+00:00,2017-06-19 21:06:39+00:00,,Left,7,DG-03-TR-020,500,360.3530526,220,1,0
ADMIN-UCSF-,2017-06-19 20:52:22+00:00,2017-06-19 21:06:39+00:00,,Right,7,DG-03-TR-020,540,316.1000013,380,0,1
ADMIN-UCSF-,2017-06-19 20:52:22+00:00,2017-06-19 21:06:39+00:00,,Left,8,DG-03-TR-020,500,390.278995,260,1,0
ADMIN-UCSF-,2017-06-19 20:52:22+00:00,2017-06-19 21:06:39+00:00,,Right,8,DG-03-TR-020,540,272.4490166,220,1,0
ADMIN-UCSF-,2017-06-19 20:52:22+00:00,2017-06-19 21:06:39+00:00,,Left,9,DG-03-TR-020,500,347.1440077,340,1,0
ADMIN-UCSF-,2017-06-19 20:52:22+00:00,2017-06-19 21:06:39+00:00,,Right,9,DG-03-TR-020,540,281.4689875,260,1,0
ADMIN-UCSF-,2017-06-19 20:52:22+00:00,2017-06-19 21:06:39+00:00,,Left,10,DG-03-TR-020,500,309.8019958,500,0,1
ADMIN-UCSF-,2017-06-19 20:52:22+00:00,2017-06-19 21:06:39+00:00,,Right,10,DG-03-TR-020,540,291.8229699,300,0,1
ADMIN-UCSF-,2017-06-19 20:52:22+00:00,2017-06-19 21:06:39+00:00,,Left,11,DG-03-TR-020,500,304.2589426,490,0,1
ADMIN-UCSF-,2017-06-19 20:52:22+00:00,2017-06-19 21:06:39+00:00,,Right,11,DG-03-TR-020,540,265.0440335,290,0,1
ADMIN-UCSF-,2017-06-19 20:52:22+00:00,2017-06-19 21:06:39+00:00,,Left,12,DG-03-TR-020,500,431.3810468,480,0,1
ADMIN-UCSF-,2017-06-19 20:52:22+00:00,2017-06-19 21:06:39+00:00,,Right,12,DG-03-TR-020,540,294.3729758,280,1,0
ADMIN-UCSF-,2017-06-19 20:52:22+00:00,2017-06-19 21:06:39+00:00,,Left,13,DG-03-TR-020,500,384.2009902,460,0,1
ADMIN-UCSF-,2017-06-19 20:52:22+00:00,2017-06-19 21:06:39+00:00,,Right,13,DG-03-TR-020,540,253.8830042,320,0,1
ADMIN-UCSF-,2017-06-19 20:52:22+00:00,2017-06-19 21:06:39+00:00,,Left,14,DG-03-TR-020,500,316.4680004,420,0,1
ADMIN-UCSF-,2017-06-19 20:52:22+00:00,2017-06-19 21:06:39+00:00,,Right,14,DG-03-TR-020,540,209.4979882,310,0,1
ADMIN-UCSF-,2017-06-19 20:52:22+00:00,2017-06-19 21:06:39+00:00,,Left,15,DG-03-TR-020,500,371.9459772,340,1,0
ADMIN-UCSF-,2017-06-19 20:52:22+00:00,2017-06-19 21:06:39+00:00,,Right,15,DG-03-TR-020,540,261.0080242,300,0,1
ADMIN-UCSF-,2017-06-19 20:52:22+00:00,2017-06-19 21:06:39+00:00,,Left,16,DG-03-TR-020,500,306.2639832,380,0,1
ADMIN-UCSF-,2017-06-19 20:52:22+00:00,2017-06-19 21:06:39+00:00,,Right,16,DG-03-TR-020,540,254.2610168,280,0,1
ADMIN-UCSF-,2017-06-19 20:52:22+00:00,2017-06-19 21:06:39+00:00,,Left,17,DG-03-TR-020,500,308.5079789,370,0,1
ADMIN-UCSF-,2017-06-19 20:52:22+00:00,2017-06-19 21:06:39+00:00,,Right,17,DG-03-TR-020,540,254.5819879,240,1,0
ADMIN-UCSF-,2017-06-19 20:52:22+00:00,2017-06-19 21:06:39+00:00,,Left,18,DG-03-TR-020,500,298.8319993,360,0,1
ADMIN-UCSF-,2017-06-19 20:52:22+00:00,2017-06-19 21:06:39+00:00,,Right,18,DG-03-TR-020,540,246.8649745,280,0,1
ADMIN-UCSF-,2017-06-19 20:52:22+00:00,2017-06-19 21:06:39+00:00,,Left,19,DG-03-TR-020,500,284.8280072,340,0,1
ADMIN-UCSF-,2017-06-19 20:52:22+00:00,2017-06-19 21:06:39+00:00,,Right,19,DG-03-TR-020,540,270.9140182,270,1,0
ADMIN-UCSF-,2017-06-07 20:57:19+00:00,2017-06-07 21:10:26+00:00,,Left,0,DG-03-MW-021,500,416.5169597,500,0,1
ADMIN-UCSF-,2017-06-07 20:57:19+00:00,2017-06-07 21:10:26+00:00,,Right,0,DG-03-MW-021,500,441.1460161,500,0,1
ADMIN-UCSF-,2017-06-07 20:57:19+00:00,2017-06-07 21:10:26+00:00,,Left,1,DG-03-MW-021,500,303.7779927,490,0,1
ADMIN-UCSF-,2017-06-07 20:57:19+00:00,2017-06-07 21:10:26+00:00,,Right,1,DG-03-MW-021,500,303.2310009,490,0,1
ADMIN-UCSF-,2017-06-07 20:57:19+00:00,2017-06-07 21:10:26+00:00,,Left,2,DG-03-MW-021,500,288.3209586,480,0,1
ADMIN-UCSF-,2017-06-07 20:57:19+00:00,2017-06-07 21:10:26+00:00,,Right,2,DG-03-MW-021,500,295.650959,480,0,1
ADMIN-UCSF-,2017-06-07 20:57:19+00:00,2017-06-07 21:10:26+00:00,,Left,3,DG-03-MW-021,500,330.6309581,460,0,1
ADMIN-UCSF-,2017-06-07 20:57:19+00:00,2017-06-07 21:10:26+00:00,,Right,3,DG-03-MW-021,500,291.4580107,460,0,1
ADMIN-UCSF-,2017-06-07 20:57:19+00:00,2017-06-07 21:10:26+00:00,,Left,4,DG-03-MW-021,500,286.5049839,420,0,1
ADMIN-UCSF-,2017-06-07 20:57:19+00:00,2017-06-07 21:10:26+00:00,,Right,4,DG-03-MW-021,500,321.7669725,420,0,1
ADMIN-UCSF-,2017-06-07 20:57:19+00:00,2017-06-07 21:10:26+00:00,,Left,5,DG-03-MW-021,500,343.4939981,340,1,0
ADMIN-UCSF-,2017-06-07 20:57:19+00:00,2017-06-07 21:10:26+00:00,,Right,5,DG-03-MW-021,500,291.7339802,340,0,1
ADMIN-UCSF-,2017-06-07 20:57:19+00:00,2017-06-07 21:10:26+00:00,,Left,6,DG-03-MW-021,500,319.2899823,380,0,1
ADMIN-UCSF-,2017-06-07 20:57:19+00:00,2017-06-07 21:10:26+00:00,,Right,6,DG-03-MW-021,500,280.3930044,180,1,0
ADMIN-UCSF-,2017-06-07 20:57:19+00:00,2017-06-07 21:10:26+00:00,,Left,7,DG-03-MW-021,500,295.7570553,370,0,1
ADMIN-UCSF-,2017-06-07 20:57:19+00:00,2017-06-07 21:10:26+00:00,,Right,7,DG-03-MW-021,500,264.4239664,220,1,0
ADMIN-UCSF-,2017-06-07 20:57:19+00:00,2017-06-07 21:10:26+00:00,,Left,8,DG-03-MW-021,500,285.1909995,360,0,1
ADMIN-UCSF-,2017-06-07 20:57:19+00:00,2017-06-07 21:10:26+00:00,,Right,8,DG-03-MW-021,500,267.7380443,260,1,0
ADMIN-UCSF-,2017-06-07 20:57:19+00:00,2017-06-07 21:10:26+00:00,,Left,9,DG-03-MW-021,500,376.6769767,340,1,0
ADMIN-UCSF-,2017-06-07 20:57:19+00:00,2017-06-07 21:10:26+00:00,,Right,9,DG-03-MW-021,500,273.4929919,340,0,1
ADMIN-UCSF-,2017-06-07 20:57:19+00:00,2017-06-07 21:10:26+00:00,,Left,10,DG-03-MW-021,500,307.5450063,380,0,1
ADMIN-UCSF-,2017-06-07 20:57:19+00:00,2017-06-07 21:10:26+00:00,,Right,10,DG-03-MW-021,500,247.3800182,330,0,1
ADMIN-UCSF-,2017-06-07 20:57:19+00:00,2017-06-07 21:10:26+00:00,,Left,11,DG-03-MW-021,500,242.998004,370,0,1
ADMIN-UCSF-,2017-06-07 20:57:19+00:00,2017-06-07 21:10:26+00:00,,Right,11,DG-03-MW-021,500,299.6530533,320,0,1
ADMIN-UCSF-,2017-06-07 20:57:19+00:00,2017-06-07 21:10:26+00:00,,Left,12,DG-03-MW-021,500,250.180006,360,0,1
ADMIN-UCSF-,2017-06-07 20:57:19+00:00,2017-06-07 21:10:26+00:00,,Right,12,DG-03-MW-021,500,276.2380242,300,0,1
ADMIN-UCSF-,2017-06-07 20:57:19+00:00,2017-06-07 21:10:26+00:00,,Left,13,DG-03-MW-021,500,309.2499971,340,0,1
ADMIN-UCSF-,2017-06-07 20:57:19+00:00,2017-06-07 21:10:26+00:00,,Right,13,DG-03-MW-021,500,240.7960296,260,0,1
ADMIN-UCSF-,2017-06-07 20:57:19+00:00,2017-06-07 21:10:26+00:00,,Left,14,DG-03-MW-021,500,229.1380167,300,0,1
ADMIN-UCSF-,2017-06-07 20:57:19+00:00,2017-06-07 21:10:26+00:00,,Right,14,DG-03-MW-021,500,297.7580428,180,1,0
ADMIN-UCSF-,2017-06-07 20:57:19+00:00,2017-06-07 21:10:26+00:00,,Left,15,DG-03-MW-021,500,319.3150163,220,1,0
ADMIN-UCSF-,2017-06-07 20:57:19+00:00,2017-06-07 21:10:26+00:00,,Right,15,DG-03-MW-021,500,231.3779593,220,1,0
ADMIN-UCSF-,2017-06-07 20:57:19+00:00,2017-06-07 21:10:26+00:00,,Left,16,DG-03-MW-021,500,367.1009541,260,1,0
ADMIN-UCSF-,2017-06-07 20:57:19+00:00,2017-06-07 21:10:26+00:00,,Right,16,DG-03-MW-021,500,246.6579676,260,0,1
ADMIN-UCSF-,2017-06-07 20:57:19+00:00,2017-06-07 21:10:26+00:00,,Left,17,DG-03-MW-021,500,260.6499791,300,0,1
ADMIN-UCSF-,2017-06-07 20:57:19+00:00,2017-06-07 21:10:26+00:00,,Right,17,DG-03-MW-021,500,290.4850245,250,1,0
ADMIN-UCSF-,2017-06-07 20:57:19+00:00,2017-06-07 21:10:26+00:00,,Left,18,DG-03-MW-021,500,290.3730273,290,1,0
ADMIN-UCSF-,2017-06-07 20:57:19+00:00,2017-06-07 21:10:26+00:00,,Right,18,DG-03-MW-021,500,286.4539623,290,0,1
ADMIN-UCSF-,2017-06-07 20:57:19+00:00,2017-06-07 21:10:26+00:00,,Left,19,DG-03-MW-021,500,258.415997,330,0,1
ADMIN-UCSF-,2017-06-07 20:57:19+00:00,2017-06-07 21:10:26+00:00,,Right,19,DG-03-MW-021,500,298.0499864,280,1,0
ADMIN-UCSF-,2017-05-22 17:47:08+00:00,2017-05-22 18:03:54+00:00,,Left,0,DG-02-TJ-029,500,397.9259729,500,0,1
ADMIN-UCSF-,2017-05-22 17:47:08+00:00,2017-05-22 18:03:54+00:00,,Right,0,DG-02-TJ-029,500,500,500,0,0
ADMIN-UCSF-,2017-05-22 17:47:08+00:00,2017-05-22 18:03:54+00:00,,Left,1,DG-02-TJ-029,500,384.9579692,490,0,1
ADMIN-UCSF-,2017-05-22 17:47:08+00:00,2017-05-22 18:03:54+00:00,,Right,1,DG-02-TJ-029,,,,,0
ADMIN-UCSF-,2017-05-22 17:47:08+00:00,2017-05-22 18:03:54+00:00,,Left,2,DG-02-TJ-029,500,368.3769703,480,0,1
ADMIN-UCSF-,2017-05-22 17:47:08+00:00,2017-05-22 18:03:54+00:00,,Right,2,DG-02-TJ-029,540,319.7060227,540,0,1
ADMIN-UCSF-,2017-05-22 17:47:08+00:00,2017-05-22 18:03:54+00:00,,Left,3,DG-02-TJ-029,500,343.3949947,460,0,1
ADMIN-UCSF-,2017-05-22 17:47:08+00:00,2017-05-22 18:03:54+00:00,,Right,3,DG-02-TJ-029,540,358.610034,530,0,1
ADMIN-UCSF-,2017-05-22 17:47:08+00:00,2017-05-22 18:03:54+00:00,,Left,4,DG-02-TJ-029,500,341.6849971,420,0,1
ADMIN-UCSF-,2017-05-22 17:47:08+00:00,2017-05-22 18:03:54+00:00,,Right,4,DG-02-TJ-029,540,369.9370027,520,0,1
ADMIN-UCSF-,2017-05-22 17:47:08+00:00,2017-05-22 18:03:54+00:00,,Left,5,DG-02-TJ-029,500,345.1960087,340,1,0
ADMIN-UCSF-,2017-05-22 17:47:08+00:00,2017-05-22 18:03:54+00:00,,Right,5,DG-02-TJ-029,540,275.7790089,500,0,1
ADMIN-UCSF-,2017-05-22 17:47:08+00:00,2017-05-22 18:03:54+00:00,,Left,6,DG-02-TJ-029,500,355.9280038,380,0,1
ADMIN-UCSF-,2017-05-22 17:47:08+00:00,2017-05-22 18:03:54+00:00,,Right,6,DG-02-TJ-029,540,288.3749604,460,0,1
ADMIN-UCSF-,2017-05-22 17:47:08+00:00,2017-05-22 18:03:54+00:00,,Left,7,DG-02-TJ-029,500,386.5199685,370,1,0
ADMIN-UCSF-,2017-05-22 17:47:08+00:00,2017-05-22 18:03:54+00:00,,Right,7,DG-02-TJ-029,540,315.2239919,380,0,1
ADMIN-UCSF-,2017-05-22 17:47:08+00:00,2017-05-22 18:03:54+00:00,,Left,8,DG-02-TJ-029,500,366.7060137,410,0,1
ADMIN-UCSF-,2017-05-22 17:47:08+00:00,2017-05-22 18:03:54+00:00,,Right,8,DG-02-TJ-029,540,272.3099589,220,1,0
ADMIN-UCSF-,2017-05-22 17:47:08+00:00,2017-05-22 18:03:54+00:00,,Left,9,DG-02-TJ-029,500,380.9059858,400,0,1
ADMIN-UCSF-,2017-05-22 17:47:08+00:00,2017-05-22 18:03:54+00:00,,Right,9,DG-02-TJ-029,540,287.8989577,260,1,0
ADMIN-UCSF-,2017-05-22 17:47:08+00:00,2017-05-22 18:03:54+00:00,,Left,10,DG-02-TJ-029,500,373.2990026,390,0,1
ADMIN-UCSF-,2017-05-22 17:47:08+00:00,2017-05-22 18:03:54+00:00,,Right,10,DG-02-TJ-029,540,71.19297981,300,1,0
ADMIN-UCSF-,2017-05-22 17:47:08+00:00,2017-05-22 18:03:54+00:00,,Left,11,DG-02-TJ-029,500,316.4070249,370,0,1
ADMIN-UCSF-,2017-05-22 17:47:08+00:00,2017-05-22 18:03:54+00:00,,Right,11,DG-02-TJ-029,540,305.47297,380,0,1
ADMIN-UCSF-,2017-05-22 17:47:08+00:00,2017-05-22 18:03:54+00:00,,Left,12,DG-02-TJ-029,500,314.1590357,330,0,1
ADMIN-UCSF-,2017-05-22 17:47:08+00:00,2017-05-22 18:03:54+00:00,,Right,12,DG-02-TJ-029,540,302.5929928,370,0,1
ADMIN-UCSF-,2017-05-22 17:47:08+00:00,2017-05-22 18:03:54+00:00,,Left,13,DG-02-TJ-029,500,449.1519928,250,1,0
ADMIN-UCSF-,2017-05-22 17:47:08+00:00,2017-05-22 18:03:54+00:00,,Right,13,DG-02-TJ-029,540,297.0399857,360,0,1
ADMIN-UCSF-,2017-05-22 17:47:08+00:00,2017-05-22 18:03:54+00:00,,Left,14,DG-02-TJ-029,500,401.1650085,290,1,0
ADMIN-UCSF-,2017-05-22 17:47:08+00:00,2017-05-22 18:03:54+00:00,,Right,14,DG-02-TJ-029,540,298.9850044,340,0,1
ADMIN-UCSF-,2017-05-22 17:47:08+00:00,2017-05-22 18:03:54+00:00,,Left,15,DG-02-TJ-029,500,392.9669857,330,1,0
ADMIN-UCSF-,2017-05-22 17:47:08+00:00,2017-05-22 18:03:54+00:00,,Right,15,DG-02-TJ-029,540,344.8570371,300,1,0
ADMIN-UCSF-,2017-05-22 17:47:08+00:00,2017-05-22 18:03:54+00:00,,Left,16,DG-02-TJ-029,500,475.1809835,410,1,0
ADMIN-UCSF-,2017-05-22 17:47:08+00:00,2017-05-22 18:03:54+00:00,,Right,16,DG-02-TJ-029,540,140.3920054,340,1,0
ADMIN-UCSF-,2017-05-22 17:47:08+00:00,2017-05-22 18:03:54+00:00,,Left,17,DG-02-TJ-029,570,443.3709979,570,0,1
ADMIN-UCSF-,2017-05-22 17:47:08+00:00,2017-05-22 18:03:54+00:00,,Right,17,DG-02-TJ-029,540,324.6150017,380,0,1
ADMIN-UCSF-,2017-05-22 17:47:08+00:00,2017-05-22 18:03:54+00:00,,Left,18,DG-02-TJ-029,570,495.1030016,560,0,1
ADMIN-UCSF-,2017-05-22 17:47:08+00:00,2017-05-22 18:03:54+00:00,,Right,18,DG-02-TJ-029,540,433.2020283,370,1,0
ADMIN-UCSF-,2017-05-22 17:47:08+00:00,2017-05-22 18:03:54+00:00,,Left,19,DG-02-TJ-029,570,570,550,1,0
ADMIN-UCSF-,2017-05-22 17:47:08+00:00,2017-05-22 18:03:54+00:00,,Right,19,DG-02-TJ-029,540,466.9870138,410,1,0
ADMIN-UCSF-,2017-05-22 17:47:08+00:00,2017-05-22 18:03:54+00:00,,Left,20,DG-02-TJ-029,,,,,0
ADMIN-UCSF-,2017-05-18 20:54:49+00:00,2017-05-18 21:09:09+00:00,,Left,0,DG-02-OO-028,500,295.0279713,500,0,1
ADMIN-UCSF-,2017-05-18 20:54:49+00:00,2017-05-18 21:09:09+00:00,,Right,0,DG-02-OO-028,500,296.4670062,500,0,1
ADMIN-UCSF-,2017-05-18 20:54:49+00:00,2017-05-18 21:09:09+00:00,,Left,1,DG-02-OO-028,500,252.0489693,490,0,1
ADMIN-UCSF-,2017-05-18 20:54:49+00:00,2017-05-18 21:09:09+00:00,,Right,1,DG-02-OO-028,500,252.0329952,490,0,1
ADMIN-UCSF-,2017-05-18 20:54:49+00:00,2017-05-18 21:09:09+00:00,,Left,2,DG-02-OO-028,500,278.6630392,480,0,1
ADMIN-UCSF-,2017-05-18 20:54:49+00:00,2017-05-18 21:09:09+00:00,,Right,2,DG-02-OO-028,500,234.3220115,480,0,1
ADMIN-UCSF-,2017-05-18 20:54:49+00:00,2017-05-18 21:09:09+00:00,,Left,3,DG-02-OO-028,500,250.1419783,460,0,1
ADMIN-UCSF-,2017-05-18 20:54:49+00:00,2017-05-18 21:09:09+00:00,,Right,3,DG-02-OO-028,500,232.7070236,460,0,1
ADMIN-UCSF-,2017-05-18 20:54:49+00:00,2017-05-18 21:09:09+00:00,,Left,4,DG-02-OO-028,500,244.2150116,420,0,1
ADMIN-UCSF-,2017-05-18 20:54:49+00:00,2017-05-18 21:09:09+00:00,,Right,4,DG-02-OO-028,500,259.1459751,420,0,1
ADMIN-UCSF-,2017-05-18 20:54:49+00:00,2017-05-18 21:09:09+00:00,,Left,5,DG-02-OO-028,500,235.3740335,340,0,1
ADMIN-UCSF-,2017-05-18 20:54:49+00:00,2017-05-18 21:09:09+00:00,,Right,5,DG-02-OO-028,500,258.2209706,340,0,1
ADMIN-UCSF-,2017-05-18 20:54:49+00:00,2017-05-18 21:09:09+00:00,,Left,6,DG-02-OO-028,500,243.2219982,180,1,0
ADMIN-UCSF-,2017-05-18 20:54:49+00:00,2017-05-18 21:09:09+00:00,,Right,6,DG-02-OO-028,500,257.2270036,180,1,0
ADMIN-UCSF-,2017-05-18 20:54:49+00:00,2017-05-18 21:09:09+00:00,,Left,7,DG-02-OO-028,500,242.2170043,220,1,0
ADMIN-UCSF-,2017-05-18 20:54:49+00:00,2017-05-18 21:09:09+00:00,,Right,7,DG-02-OO-028,500,263.3270025,220,1,0
ADMIN-UCSF-,2017-05-18 20:54:49+00:00,2017-05-18 21:09:09+00:00,,Left,8,DG-02-OO-028,500,242.4170375,260,0,1
ADMIN-UCSF-,2017-05-18 20:54:49+00:00,2017-05-18 21:09:09+00:00,,Right,8,DG-02-OO-028,500,270.0790167,260,1,0
ADMIN-UCSF-,2017-05-18 20:54:49+00:00,2017-05-18 21:09:09+00:00,,Left,9,DG-02-OO-028,500,242.513001,250,0,1
ADMIN-UCSF-,2017-05-18 20:54:49+00:00,2017-05-18 21:09:09+00:00,,Right,9,DG-02-OO-028,500,279.8330188,340,0,1
ADMIN-UCSF-,2017-05-18 20:54:49+00:00,2017-05-18 21:09:09+00:00,,Left,10,DG-02-OO-028,500,233.6729765,240,0,1
ADMIN-UCSF-,2017-05-18 20:54:49+00:00,2017-05-18 21:09:09+00:00,,Right,10,DG-02-OO-028,500,256.4519644,330,0,1
ADMIN-UCSF-,2017-05-18 20:54:49+00:00,2017-05-18 21:09:09+00:00,,Left,11,DG-02-OO-028,500,228.3970118,220,1,0
ADMIN-UCSF-,2017-05-18 20:54:49+00:00,2017-05-18 21:09:09+00:00,,Right,11,DG-02-OO-028,500,237.8630042,320,0,1
ADMIN-UCSF-,2017-05-18 20:54:49+00:00,2017-05-18 21:09:09+00:00,,Left,12,DG-02-OO-028,500,233.8260412,260,0,1
ADMIN-UCSF-,2017-05-18 20:54:49+00:00,2017-05-18 21:09:09+00:00,,Right,12,DG-02-OO-028,500,280.1849842,300,0,1
ADMIN-UCSF-,2017-05-18 20:54:49+00:00,2017-05-18 21:09:09+00:00,,Left,13,DG-02-OO-028,500,236.8959785,250,0,1
ADMIN-UCSF-,2017-05-18 20:54:49+00:00,2017-05-18 21:09:09+00:00,,Right,13,DG-02-OO-028,500,279.9640298,260,1,0
ADMIN-UCSF-,2017-05-18 20:54:49+00:00,2017-05-18 21:09:09+00:00,,Left,14,DG-02-OO-028,500,190.8809543,240,0,1
ADMIN-UCSF-,2017-05-18 20:54:49+00:00,2017-05-18 21:09:09+00:00,,Right,14,DG-02-OO-028,500,259.7820163,300,0,1
ADMIN-UCSF-,2017-05-18 20:54:49+00:00,2017-05-18 21:09:09+00:00,,Left,15,DG-02-OO-028,500,242.857039,220,1,0
ADMIN-UCSF-,2017-05-18 20:54:49+00:00,2017-05-18 21:09:09+00:00,,Right,15,DG-02-OO-028,500,264.2830014,290,0,1
ADMIN-UCSF-,2017-05-18 20:54:49+00:00,2017-05-18 21:09:09+00:00,,Left,16,DG-02-OO-028,500,283.0330133,260,1,0
ADMIN-UCSF-,2017-05-18 20:54:49+00:00,2017-05-18 21:09:09+00:00,,Right,16,DG-02-OO-028,500,262.5319958,280,0,1
ADMIN-UCSF-,2017-05-18 20:54:49+00:00,2017-05-18 21:09:09+00:00,,Left,17,DG-02-OO-028,500,250.0619888,300,0,1
ADMIN-UCSF-,2017-05-18 20:54:49+00:00,2017-05-18 21:09:09+00:00,,Right,17,DG-02-OO-028,500,268.2899833,260,1,0
ADMIN-UCSF-,2017-05-18 20:54:49+00:00,2017-05-18 21:09:09+00:00,,Left,18,DG-02-OO-028,500,234.7319722,290,0,1
ADMIN-UCSF-,2017-05-18 20:54:49+00:00,2017-05-18 21:09:09+00:00,,Right,18,DG-02-OO-028,500,331.0769796,300,1,0
ADMIN-UCSF-,2017-05-18 20:54:49+00:00,2017-05-18 21:09:09+00:00,,Left,19,DG-02-OO-028,500,259.4019771,280,0,1
ADMIN-UCSF-,2017-05-18 20:54:49+00:00,2017-05-18 21:09:09+00:00,,Right,19,DG-02-OO-028,500,424.5150089,340,1,0
ADMIN-UCSF-,2017-05-18 19:25:39+00:00,2017-05-18 19:41:03+00:00,,Left,0,DG-03-HS-017,500,333.7279558,500,0,1
ADMIN-UCSF-,2017-05-18 19:25:39+00:00,2017-05-18 19:41:03+00:00,,Right,0,DG-03-HS-017,500,321.9010234,500,0,1
ADMIN-UCSF-,2017-05-18 19:25:39+00:00,2017-05-18 19:41:03+00:00,,Left,1,DG-03-HS-017,,,,,0
ADMIN-UCSF-,2017-05-18 19:25:39+00:00,2017-05-18 19:41:03+00:00,,Right,1,DG-03-HS-017,500,230.8769822,490,0,1
ADMIN-UCSF-,2017-05-18 19:25:39+00:00,2017-05-18 19:41:03+00:00,,Left,2,DG-03-HS-017,500,371.4140058,490,0,1
ADMIN-UCSF-,2017-05-18 19:25:39+00:00,2017-05-18 19:41:03+00:00,,Right,2,DG-03-HS-017,500,236.3929749,480,0,1
ADMIN-UCSF-,2017-05-18 19:25:39+00:00,2017-05-18 19:41:03+00:00,,Left,3,DG-03-HS-017,,,,,0
ADMIN-UCSF-,2017-05-18 19:25:39+00:00,2017-05-18 19:41:03+00:00,,Right,3,DG-03-HS-017,500,254.4850111,460,0,1
ADMIN-UCSF-,2017-05-18 19:25:39+00:00,2017-05-18 19:41:03+00:00,,Left,4,DG-03-HS-017,500,345.5510139,480,0,1
ADMIN-UCSF-,2017-05-18 19:25:39+00:00,2017-05-18 19:41:03+00:00,,Right,4,DG-03-HS-017,500,233.5119843,420,0,1
ADMIN-UCSF-,2017-05-18 19:25:39+00:00,2017-05-18 19:41:03+00:00,,Left,5,DG-03-HS-017,500,374.5210171,460,0,1
ADMIN-UCSF-,2017-05-18 19:25:39+00:00,2017-05-18 19:41:03+00:00,,Right,5,DG-03-HS-017,500,375.5840063,340,1,0
ADMIN-UCSF-,2017-05-18 19:25:39+00:00,2017-05-18 19:41:03+00:00,,Left,6,DG-03-HS-017,500,500,420,1,0
ADMIN-UCSF-,2017-05-18 19:25:39+00:00,2017-05-18 19:41:03+00:00,,Right,6,DG-03-HS-017,500,228.9080024,380,0,1
ADMIN-UCSF-,2017-05-18 19:25:39+00:00,2017-05-18 19:41:03+00:00,,Left,7,DG-03-HS-017,,,,,0
ADMIN-UCSF-,2017-05-18 19:25:39+00:00,2017-05-18 19:41:03+00:00,,Right,7,DG-03-HS-017,500,309.1699481,370,0,1
ADMIN-UCSF-,2017-05-18 19:25:39+00:00,2017-05-18 19:41:03+00:00,,Left,8,DG-03-HS-017,500,379.4749975,460,0,1
ADMIN-UCSF-,2017-05-18 19:25:39+00:00,2017-05-18 19:41:03+00:00,,Right,8,DG-03-HS-017,500,226.0710001,360,0,1
ADMIN-UCSF-,2017-05-18 19:25:39+00:00,2017-05-18 19:41:03+00:00,,Left,9,DG-03-HS-017,500,500,450,1,0
ADMIN-UCSF-,2017-05-18 19:25:39+00:00,2017-05-18 19:41:03+00:00,,Right,9,DG-03-HS-017,500,267.7810192,340,0,1
ADMIN-UCSF-,2017-05-18 19:25:39+00:00,2017-05-18 19:41:03+00:00,,Left,10,DG-03-HS-017,,,,,0
ADMIN-UCSF-,2017-05-18 19:25:39+00:00,2017-05-18 19:41:03+00:00,,Right,10,DG-03-HS-017,500,312.8990531,300,1,0
ADMIN-UCSF-,2017-05-18 19:25:39+00:00,2017-05-18 19:41:03+00:00,,Left,11,DG-03-HS-017,500,297.4759936,490,0,1
ADMIN-UCSF-,2017-05-18 19:25:39+00:00,2017-05-18 19:41:03+00:00,,Right,11,DG-03-HS-017,500,280.0530195,340,0,1
ADMIN-UCSF-,2017-05-18 19:25:39+00:00,2017-05-18 19:41:03+00:00,,Left,12,DG-03-HS-017,500,484.5509529,480,1,0
ADMIN-UCSF-,2017-05-18 19:25:39+00:00,2017-05-18 19:41:03+00:00,,Right,12,DG-03-HS-017,500,447.4189878,330,1,0
ADMIN-UCSF-,2017-05-18 19:25:39+00:00,2017-05-18 19:41:03+00:00,,Left,13,DG-03-HS-017,520,389.6169662,520,0,1
ADMIN-UCSF-,2017-05-18 19:25:39+00:00,2017-05-18 19:41:03+00:00,,Right,13,DG-03-HS-017,500,393.5050368,370,1,0
ADMIN-UCSF-,2017-05-18 19:25:39+00:00,2017-05-18 19:41:03+00:00,,Left,14,DG-03-HS-017,520,520,510,1,0
ADMIN-UCSF-,2017-05-18 19:25:39+00:00,2017-05-18 19:41:03+00:00,,Right,14,DG-03-HS-017,500,294.4599986,410,0,1
ADMIN-UCSF-,2017-05-18 19:25:39+00:00,2017-05-18 19:41:03+00:00,,Left,15,DG-03-HS-017,,,,,0
ADMIN-UCSF-,2017-05-18 19:25:39+00:00,2017-05-18 19:41:03+00:00,,Right,15,DG-03-HS-017,500,282.5670242,400,0,1
ADMIN-UCSF-,2017-05-18 19:25:39+00:00,2017-05-18 19:41:03+00:00,,Left,16,DG-03-HS-017,550,412.0950103,550,0,1
ADMIN-UCSF-,2017-05-18 19:25:39+00:00,2017-05-18 19:41:03+00:00,,Right,16,DG-03-HS-017,500,278.8359523,390,0,1
ADMIN-UCSF-,2017-05-18 19:25:39+00:00,2017-05-18 19:41:03+00:00,,Left,17,DG-03-HS-017,550,419.8970199,540,0,1
ADMIN-UCSF-,2017-05-18 19:25:39+00:00,2017-05-18 19:41:03+00:00,,Right,17,DG-03-HS-017,500,312.0790124,370,0,1
ADMIN-UCSF-,2017-05-18 19:25:39+00:00,2017-05-18 19:41:03+00:00,,Left,18,DG-03-HS-017,550,532.7740312,530,1,0
ADMIN-UCSF-,2017-05-18 19:25:39+00:00,2017-05-18 19:41:03+00:00,,Right,18,DG-03-HS-017,500,420.4549789,330,1,0
ADMIN-UCSF-,2017-05-18 19:25:39+00:00,2017-05-18 19:41:03+00:00,,Left,19,DG-03-HS-017,570,468.0790305,570,0,1
ADMIN-UCSF-,2017-05-18 19:25:39+00:00,2017-05-18 19:41:03+00:00,,Right,19,DG-03-HS-017,500,374.6979833,370,1,0
ADMIN-UCSF-,2017-05-17 18:53:47+00:00,2017-05-17 19:11:43+00:00,,Left,0,DG-01-MAB-024,500,500,500,0,0
ADMIN-UCSF-,2017-05-17 18:53:47+00:00,2017-05-17 19:11:43+00:00,,Right,0,DG-01-MAB-024,500,500,500,0,0
ADMIN-UCSF-,2017-05-17 18:53:47+00:00,2017-05-17 19:11:43+00:00,,Left,1,DG-01-MAB-024,,,,,0
ADMIN-UCSF-,2017-05-17 18:53:47+00:00,2017-05-17 19:11:43+00:00,,Right,1,DG-01-MAB-024,,,,,0
ADMIN-UCSF-,2017-05-17 18:53:47+00:00,2017-05-17 19:11:43+00:00,,Left,2,DG-01-MAB-024,540,300.3939986,540,0,1
ADMIN-UCSF-,2017-05-17 18:53:47+00:00,2017-05-17 19:11:43+00:00,,Right,2,DG-01-MAB-024,540,277.968049,540,0,1
ADMIN-UCSF-,2017-05-17 18:53:47+00:00,2017-05-17 19:11:43+00:00,,Left,3,DG-01-MAB-024,540,256.7489743,530,0,1
ADMIN-UCSF-,2017-05-17 18:53:47+00:00,2017-05-17 19:11:43+00:00,,Right,3,DG-01-MAB-024,540,293.9629555,530,0,1
ADMIN-UCSF-,2017-05-17 18:53:47+00:00,2017-05-17 19:11:43+00:00,,Left,4,DG-01-MAB-024,540,272.3540068,520,0,1
ADMIN-UCSF-,2017-05-17 18:53:47+00:00,2017-05-17 19:11:43+00:00,,Right,4,DG-01-MAB-024,540,304.4669628,520,0,1
ADMIN-UCSF-,2017-05-17 18:53:47+00:00,2017-05-17 19:11:43+00:00,,Left,5,DG-01-MAB-024,540,273.2639909,500,0,1
ADMIN-UCSF-,2017-05-17 18:53:47+00:00,2017-05-17 19:11:43+00:00,,Right,5,DG-01-MAB-024,540,312.4380112,500,0,1
ADMIN-UCSF-,2017-05-17 18:53:47+00:00,2017-05-17 19:11:43+00:00,,Left,6,DG-01-MAB-024,540,290.4000282,460,0,1
ADMIN-UCSF-,2017-05-17 18:53:47+00:00,2017-05-17 19:11:43+00:00,,Right,6,DG-01-MAB-024,540,366.8300509,460,0,1
ADMIN-UCSF-,2017-05-17 18:53:47+00:00,2017-05-17 19:11:43+00:00,,Left,7,DG-01-MAB-024,540,351.1219621,380,0,1
ADMIN-UCSF-,2017-05-17 18:53:47+00:00,2017-05-17 19:11:43+00:00,,Right,7,DG-01-MAB-024,540,314.7029877,380,0,1
ADMIN-UCSF-,2017-05-17 18:53:47+00:00,2017-05-17 19:11:43+00:00,,Left,8,DG-01-MAB-024,540,339.8349881,220,1,0
ADMIN-UCSF-,2017-05-17 18:53:47+00:00,2017-05-17 19:11:43+00:00,,Right,8,DG-01-MAB-024,540,372.3219633,220,1,0
ADMIN-UCSF-,2017-05-17 18:53:47+00:00,2017-05-17 19:11:43+00:00,,Left,9,DG-01-MAB-024,540,334.5739841,260,1,0
ADMIN-UCSF-,2017-05-17 18:53:47+00:00,2017-05-17 19:11:43+00:00,,Right,9,DG-01-MAB-024,540,340.346992,260,1,0
ADMIN-UCSF-,2017-05-17 18:53:47+00:00,2017-05-17 19:11:43+00:00,,Left,10,DG-01-MAB-024,540,292.0770049,300,0,1
ADMIN-UCSF-,2017-05-17 18:53:47+00:00,2017-05-17 19:11:43+00:00,,Right,10,DG-01-MAB-024,540,279.9109817,300,0,1
ADMIN-UCSF-,2017-05-17 18:53:47+00:00,2017-05-17 19:11:43+00:00,,Left,11,DG-01-MAB-024,540,272.7730274,290,0,1
ADMIN-UCSF-,2017-05-17 18:53:47+00:00,2017-05-17 19:11:43+00:00,,Right,11,DG-01-MAB-024,540,285.10499,290,0,1
ADMIN-UCSF-,2017-05-17 18:53:47+00:00,2017-05-17 19:11:43+00:00,,Left,12,DG-01-MAB-024,540,285.4520082,280,1,0
ADMIN-UCSF-,2017-05-17 18:53:47+00:00,2017-05-17 19:11:43+00:00,,Right,12,DG-01-MAB-024,540,335.6949687,280,1,0
ADMIN-UCSF-,2017-05-17 18:53:47+00:00,2017-05-17 19:11:43+00:00,,Left,13,DG-01-MAB-024,540,280.9079885,320,0,1
ADMIN-UCSF-,2017-05-17 18:53:47+00:00,2017-05-17 19:11:43+00:00,,Right,13,DG-01-MAB-024,540,317.5809979,320,0,1
ADMIN-UCSF-,2017-05-17 18:53:47+00:00,2017-05-17 19:11:43+00:00,,Left,14,DG-01-MAB-024,540,278.6400318,310,0,1
ADMIN-UCSF-,2017-05-17 18:53:47+00:00,2017-05-17 19:11:43+00:00,,Right,14,DG-01-MAB-024,540,251.9200444,310,0,1
ADMIN-UCSF-,2017-05-17 18:53:47+00:00,2017-05-17 19:11:43+00:00,,Left,15,DG-01-MAB-024,540,364.8419976,300,1,0
ADMIN-UCSF-,2017-05-17 18:53:47+00:00,2017-05-17 19:11:43+00:00,,Right,15,DG-01-MAB-024,540,327.6050091,300,1,0
ADMIN-UCSF-,2017-05-17 18:53:47+00:00,2017-05-17 19:11:43+00:00,,Left,16,DG-01-MAB-024,540,409.4460011,340,1,0
ADMIN-UCSF-,2017-05-17 18:53:47+00:00,2017-05-17 19:11:43+00:00,,Right,16,DG-01-MAB-024,540,339.7300243,340,0,1
ADMIN-UCSF-,2017-05-17 18:53:47+00:00,2017-05-17 19:11:43+00:00,,Left,17,DG-01-MAB-024,540,367.8700328,380,0,1
ADMIN-UCSF-,2017-05-17 18:53:47+00:00,2017-05-17 19:11:43+00:00,,Right,17,DG-01-MAB-024,540,271.1459994,330,0,1
ADMIN-UCSF-,2017-05-17 18:53:47+00:00,2017-05-17 19:11:43+00:00,,Left,18,DG-01-MAB-024,540,432.85501,370,1,0
ADMIN-UCSF-,2017-05-17 18:53:47+00:00,2017-05-17 19:11:43+00:00,,Right,18,DG-01-MAB-024,540,312.7520084,320,0,1
ADMIN-UCSF-,2017-05-17 18:53:47+00:00,2017-05-17 19:11:43+00:00,,Left,19,DG-01-MAB-024,540,319.3269968,410,0,1
ADMIN-UCSF-,2017-05-17 18:53:47+00:00,2017-05-17 19:11:43+00:00,,Right,19,DG-01-MAB-024,540,320.8999634,300,1,0
ADMIN-UCSF-,2017-05-11 18:37:22+00:00,2017-05-11 18:56:48+00:00,,Left,0,DG-02-KK-027,500,310.4249835,500,0,1
ADMIN-UCSF-,2017-05-11 18:37:22+00:00,2017-05-11 18:56:48+00:00,,Right,0,DG-02-KK-027,500,374.1350174,500,0,1
ADMIN-UCSF-,2017-05-11 18:37:22+00:00,2017-05-11 18:56:48+00:00,,Left,1,DG-02-KK-027,500,303.9950132,490,0,1
ADMIN-UCSF-,2017-05-11 18:37:22+00:00,2017-05-11 18:56:48+00:00,,Right,1,DG-02-KK-027,500,264.5999789,490,0,1
ADMIN-UCSF-,2017-05-11 18:37:22+00:00,2017-05-11 18:56:48+00:00,,Left,2,DG-02-KK-027,500,281.9930315,480,0,1
ADMIN-UCSF-,2017-05-11 18:37:22+00:00,2017-05-11 18:56:48+00:00,,Right,2,DG-02-KK-027,500,284.5489979,480,0,1
ADMIN-UCSF-,2017-05-11 18:37:22+00:00,2017-05-11 18:56:48+00:00,,Left,3,DG-02-KK-027,500,350.2829671,460,0,1
ADMIN-UCSF-,2017-05-11 18:37:22+00:00,2017-05-11 18:56:48+00:00,,Right,3,DG-02-KK-027,500,314.6799803,460,0,1
ADMIN-UCSF-,2017-05-11 18:37:22+00:00,2017-05-11 18:56:48+00:00,,Left,4,DG-02-KK-027,500,418.4500575,420,0,1
ADMIN-UCSF-,2017-05-11 18:37:22+00:00,2017-05-11 18:56:48+00:00,,Right,4,DG-02-KK-027,500,339.812994,420,0,1
ADMIN-UCSF-,2017-05-11 18:37:22+00:00,2017-05-11 18:56:48+00:00,,Left,5,DG-02-KK-027,500,284.3329906,340,0,1
ADMIN-UCSF-,2017-05-11 18:37:22+00:00,2017-05-11 18:56:48+00:00,,Right,5,DG-02-KK-027,500,338.7700319,340,0,1
ADMIN-UCSF-,2017-05-11 18:37:22+00:00,2017-05-11 18:56:48+00:00,,Left,6,DG-02-KK-027,500,333.7610364,180,1,0
ADMIN-UCSF-,2017-05-11 18:37:22+00:00,2017-05-11 18:56:48+00:00,,Right,6,DG-02-KK-027,500,308.1099987,180,1,0
ADMIN-UCSF-,2017-05-11 18:37:22+00:00,2017-05-11 18:56:48+00:00,,Left,7,DG-02-KK-027,500,342.6049948,220,1,0
ADMIN-UCSF-,2017-05-11 18:37:22+00:00,2017-05-11 18:56:48+00:00,,Right,7,DG-02-KK-027,500,297.4480391,220,1,0
ADMIN-UCSF-,2017-05-11 18:37:22+00:00,2017-05-11 18:56:48+00:00,,Left,8,DG-02-KK-027,500,334.1749907,260,1,0
ADMIN-UCSF-,2017-05-11 18:37:22+00:00,2017-05-11 18:56:48+00:00,,Right,8,DG-02-KK-027,500,276.1539817,260,1,0
ADMIN-UCSF-,2017-05-11 18:37:22+00:00,2017-05-11 18:56:48+00:00,,Left,9,DG-02-KK-027,500,333.9470029,340,0,1
ADMIN-UCSF-,2017-05-11 18:37:22+00:00,2017-05-11 18:56:48+00:00,,Right,9,DG-02-KK-027,500,281.9449902,340,0,1
ADMIN-UCSF-,2017-05-11 18:37:22+00:00,2017-05-11 18:56:48+00:00,,Left,10,DG-02-KK-027,500,296.9920039,330,0,1
ADMIN-UCSF-,2017-05-11 18:37:22+00:00,2017-05-11 18:56:48+00:00,,Right,10,DG-02-KK-027,500,314.538002,330,0,1
ADMIN-UCSF-,2017-05-11 18:37:22+00:00,2017-05-11 18:56:48+00:00,,Left,11,DG-02-KK-027,500,363.057971,320,1,0
ADMIN-UCSF-,2017-05-11 18:37:22+00:00,2017-05-11 18:56:48+00:00,,Right,11,DG-02-KK-027,500,328.7689686,320,1,0
ADMIN-UCSF-,2017-05-11 18:37:22+00:00,2017-05-11 18:56:48+00:00,,Left,12,DG-02-KK-027,500,308.111012,360,0,1
ADMIN-UCSF-,2017-05-11 18:37:22+00:00,2017-05-11 18:56:48+00:00,,Right,12,DG-02-KK-027,500,339.3959999,360,0,1
ADMIN-UCSF-,2017-05-11 18:37:22+00:00,2017-05-11 18:56:48+00:00,,Left,13,DG-02-KK-027,500,354.4790149,350,1,0
ADMIN-UCSF-,2017-05-11 18:37:22+00:00,2017-05-11 18:56:48+00:00,,Right,13,DG-02-KK-027,500,302.0629883,350,0,1
ADMIN-UCSF-,2017-05-11 18:37:22+00:00,2017-05-11 18:56:48+00:00,,Left,14,DG-02-KK-027,500,369.1740036,390,0,1
ADMIN-UCSF-,2017-05-11 18:37:22+00:00,2017-05-11 18:56:48+00:00,,Right,14,DG-02-KK-027,500,294.6749926,340,0,1
ADMIN-UCSF-,2017-05-11 18:37:22+00:00,2017-05-11 18:56:48+00:00,,Left,15,DG-02-KK-027,500,316.4989948,380,0,1
ADMIN-UCSF-,2017-05-11 18:37:22+00:00,2017-05-11 18:56:48+00:00,,Right,15,DG-02-KK-027,500,330.763042,320,1,0
ADMIN-UCSF-,2017-05-11 18:37:22+00:00,2017-05-11 18:56:48+00:00,,Left,16,DG-02-KK-027,500,304.5079708,370,0,1
ADMIN-UCSF-,2017-05-11 18:37:22+00:00,2017-05-11 18:56:48+00:00,,Right,16,DG-02-KK-027,500,316.8260455,360,0,1
ADMIN-UCSF-,2017-05-11 18:37:22+00:00,2017-05-11 18:56:48+00:00,,Left,17,DG-02-KK-027,500,376.0109544,350,1,0
ADMIN-UCSF-,2017-05-11 18:37:22+00:00,2017-05-11 18:56:48+00:00,,Right,17,DG-02-KK-027,500,336.0980153,350,0,1
ADMIN-UCSF-,2017-05-11 18:37:22+00:00,2017-05-11 18:56:48+00:00,,Left,18,DG-02-KK-027,500,317.7310228,390,0,1
ADMIN-UCSF-,2017-05-11 18:37:22+00:00,2017-05-11 18:56:48+00:00,,Right,18,DG-02-KK-027,500,322.5340247,340,0,1
ADMIN-UCSF-,2017-05-11 18:37:22+00:00,2017-05-11 18:56:48+00:00,,Left,19,DG-02-KK-027,500,314.011991,380,0,1
ADMIN-UCSF-,2017-05-11 18:37:22+00:00,2017-05-11 18:56:48+00:00,,Right,19,DG-02-KK-027,500,317.5800443,320,0,1
ADMIN-UCSF-,2017-05-11 17:53:13+00:00,2017-05-11 18:12:14+00:00,,Left,0,DG-03-MW-021,500,442.6019788,500,0,1
ADMIN-UCSF-,2017-05-11 17:53:13+00:00,2017-05-11 18:12:14+00:00,,Right,0,DG-03-MW-021,500,500,500,0,0
ADMIN-UCSF-,2017-05-11 17:53:13+00:00,2017-05-11 18:12:14+00:00,,Left,1,DG-03-MW-021,500,343.3400393,490,0,1
ADMIN-UCSF-,2017-05-11 17:53:13+00:00,2017-05-11 18:12:14+00:00,,Right,1,DG-03-MW-021,,,,,0
ADMIN-UCSF-,2017-05-11 17:53:13+00:00,2017-05-11 18:12:14+00:00,,Left,2,DG-03-MW-021,500,326.0529637,480,0,1
ADMIN-UCSF-,2017-05-11 17:53:13+00:00,2017-05-11 18:12:14+00:00,,Right,2,DG-03-MW-021,540,373.2420206,540,0,1
ADMIN-UCSF-,2017-05-11 17:53:13+00:00,2017-05-11 18:12:14+00:00,,Left,3,DG-03-MW-021,500,385.5989575,460,0,1
ADMIN-UCSF-,2017-05-11 17:53:13+00:00,2017-05-11 18:12:14+00:00,,Right,3,DG-03-MW-021,540,334.1069818,530,0,1
ADMIN-UCSF-,2017-05-11 17:53:13+00:00,2017-05-11 18:12:14+00:00,,Left,4,DG-03-MW-021,500,330.8150172,420,0,1
ADMIN-UCSF-,2017-05-11 17:53:13+00:00,2017-05-11 18:12:14+00:00,,Right,4,DG-03-MW-021,540,363.2360101,520,0,1
ADMIN-UCSF-,2017-05-11 17:53:13+00:00,2017-05-11 18:12:14+00:00,,Left,5,DG-03-MW-021,500,368.9249754,340,1,0
ADMIN-UCSF-,2017-05-11 17:53:13+00:00,2017-05-11 18:12:14+00:00,,Right,5,DG-03-MW-021,540,359.1509461,500,0,1
ADMIN-UCSF-,2017-05-11 17:53:13+00:00,2017-05-11 18:12:14+00:00,,Left,6,DG-03-MW-021,500,392.6029801,380,1,0
ADMIN-UCSF-,2017-05-11 17:53:13+00:00,2017-05-11 18:12:14+00:00,,Right,6,DG-03-MW-021,540,331.7399621,460,0,1
ADMIN-UCSF-,2017-05-11 17:53:13+00:00,2017-05-11 18:12:14+00:00,,Left,7,DG-03-MW-021,500,352.0520329,420,0,1
ADMIN-UCSF-,2017-05-11 17:53:13+00:00,2017-05-11 18:12:14+00:00,,Right,7,DG-03-MW-021,540,339.7809863,380,0,1
ADMIN-UCSF-,2017-05-11 17:53:13+00:00,2017-05-11 18:12:14+00:00,,Left,8,DG-03-MW-021,500,283.5680246,410,0,1
ADMIN-UCSF-,2017-05-11 17:53:13+00:00,2017-05-11 18:12:14+00:00,,Right,8,DG-03-MW-021,540,355.9259772,220,1,0
ADMIN-UCSF-,2017-05-11 17:53:13+00:00,2017-05-11 18:12:14+00:00,,Left,9,DG-03-MW-021,500,258.7270141,400,0,1
ADMIN-UCSF-,2017-05-11 17:53:13+00:00,2017-05-11 18:12:14+00:00,,Right,9,DG-03-MW-021,540,346.2550044,260,1,0
ADMIN-UCSF-,2017-05-11 17:53:13+00:00,2017-05-11 18:12:14+00:00,,Left,10,DG-03-MW-021,500,353.2350063,380,0,1
ADMIN-UCSF-,2017-05-11 17:53:13+00:00,2017-05-11 18:12:14+00:00,,Right,10,DG-03-MW-021,540,321.2100267,300,1,0
ADMIN-UCSF-,2017-05-11 17:53:13+00:00,2017-05-11 18:12:14+00:00,,Left,11,DG-03-MW-021,500,353.0079722,340,1,0
ADMIN-UCSF-,2017-05-11 17:53:13+00:00,2017-05-11 18:12:14+00:00,,Right,11,DG-03-MW-021,540,303.8890362,380,0,1
ADMIN-UCSF-,2017-05-11 17:53:13+00:00,2017-05-11 18:12:14+00:00,,Left,12,DG-03-MW-021,500,452.229023,380,1,0
ADMIN-UCSF-,2017-05-11 17:53:13+00:00,2017-05-11 18:12:14+00:00,,Right,12,DG-03-MW-021,540,321.4250207,370,0,1
ADMIN-UCSF-,2017-05-11 17:53:13+00:00,2017-05-11 18:12:14+00:00,,Left,13,DG-03-MW-021,500,390.9209967,420,0,1
ADMIN-UCSF-,2017-05-11 17:53:13+00:00,2017-05-11 18:12:14+00:00,,Right,13,DG-03-MW-021,540,313.3580089,360,0,1
ADMIN-UCSF-,2017-05-11 17:53:13+00:00,2017-05-11 18:12:14+00:00,,Left,14,DG-03-MW-021,500,275.5459547,410,0,1
ADMIN-UCSF-,2017-05-11 17:53:13+00:00,2017-05-11 18:12:14+00:00,,Right,14,DG-03-MW-021,540,336.8279934,340,0,1
ADMIN-UCSF-,2017-05-11 17:53:13+00:00,2017-05-11 18:12:14+00:00,,Left,15,DG-03-MW-021,500,277.0850062,400,0,1
ADMIN-UCSF-,2017-05-11 17:53:13+00:00,2017-05-11 18:12:14+00:00,,Right,15,DG-03-MW-021,540,368.6309457,300,1,0
ADMIN-UCSF-,2017-05-11 17:53:13+00:00,2017-05-11 18:12:14+00:00,,Left,16,DG-03-MW-021,500,292.7590013,380,0,1
ADMIN-UCSF-,2017-05-11 17:53:13+00:00,2017-05-11 18:12:14+00:00,,Right,16,DG-03-MW-021,540,352.4879813,340,1,0
ADMIN-UCSF-,2017-05-11 17:53:13+00:00,2017-05-11 18:12:14+00:00,,Left,17,DG-03-MW-021,500,378.0149817,340,1,0
ADMIN-UCSF-,2017-05-11 17:53:13+00:00,2017-05-11 18:12:14+00:00,,Right,17,DG-03-MW-021,540,334.9670172,380,0,1
ADMIN-UCSF-,2017-05-11 17:53:13+00:00,2017-05-11 18:12:14+00:00,,Left,18,DG-03-MW-021,500,297.0870137,380,0,1
ADMIN-UCSF-,2017-05-11 17:53:13+00:00,2017-05-11 18:12:14+00:00,,Right,18,DG-03-MW-021,540,320.0989962,370,0,1
ADMIN-UCSF-,2017-05-11 17:53:13+00:00,2017-05-11 18:12:14+00:00,,Left,19,DG-03-MW-021,500,258.5110068,370,0,1
ADMIN-UCSF-,2017-05-11 17:53:13+00:00,2017-05-11 18:12:14+00:00,,Right,19,DG-03-MW-021,540,268.8519955,360,0,1
ADMIN-UCSF-,2017-05-10 15:11:40+00:00,2017-05-10 15:29:19+00:00,,Left,0,DG-03-KL-019,500,416.9790149,500,0,1
ADMIN-UCSF-,2017-05-10 15:11:40+00:00,2017-05-10 15:29:19+00:00,,Right,0,DG-03-KL-019,500,446.5839863,500,0,1
ADMIN-UCSF-,2017-05-10 15:11:40+00:00,2017-05-10 15:29:19+00:00,,Left,1,DG-03-KL-019,500,343.2099819,490,0,1
ADMIN-UCSF-,2017-05-10 15:11:40+00:00,2017-05-10 15:29:19+00:00,,Right,1,DG-03-KL-019,500,346.9659686,490,0,1
ADMIN-UCSF-,2017-05-10 15:11:40+00:00,2017-05-10 15:29:19+00:00,,Left,2,DG-03-KL-019,500,337.1119499,480,0,1
ADMIN-UCSF-,2017-05-10 15:11:40+00:00,2017-05-10 15:29:19+00:00,,Right,2,DG-03-KL-019,500,342.0420289,480,0,1
ADMIN-UCSF-,2017-05-10 15:11:40+00:00,2017-05-10 15:29:19+00:00,,Left,3,DG-03-KL-019,500,325.7069588,460,0,1
ADMIN-UCSF-,2017-05-10 15:11:40+00:00,2017-05-10 15:29:19+00:00,,Right,3,DG-03-KL-019,500,333.8180184,460,0,1
ADMIN-UCSF-,2017-05-10 15:11:40+00:00,2017-05-10 15:29:19+00:00,,Left,4,DG-03-KL-019,500,352.9160023,420,0,1
ADMIN-UCSF-,2017-05-10 15:11:40+00:00,2017-05-10 15:29:19+00:00,,Right,4,DG-03-KL-019,500,312.6980066,420,0,1
ADMIN-UCSF-,2017-05-10 15:11:40+00:00,2017-05-10 15:29:19+00:00,,Left,5,DG-03-KL-019,500,325.4979849,340,0,1
ADMIN-UCSF-,2017-05-10 15:11:40+00:00,2017-05-10 15:29:19+00:00,,Right,5,DG-03-KL-019,500,335.8530402,340,0,1
ADMIN-UCSF-,2017-05-10 15:11:40+00:00,2017-05-10 15:29:19+00:00,,Left,6,DG-03-KL-019,500,333.433032,180,1,0
ADMIN-UCSF-,2017-05-10 15:11:40+00:00,2017-05-10 15:29:19+00:00,,Right,6,DG-03-KL-019,500,372.6760149,180,1,0
ADMIN-UCSF-,2017-05-10 15:11:40+00:00,2017-05-10 15:29:19+00:00,,Left,7,DG-03-KL-019,500,301.4140129,220,1,0
ADMIN-UCSF-,2017-05-10 15:11:40+00:00,2017-05-10 15:29:19+00:00,,Right,7,DG-03-KL-019,500,415.9969687,220,1,0
ADMIN-UCSF-,2017-05-10 15:11:40+00:00,2017-05-10 15:29:19+00:00,,Left,8,DG-03-KL-019,500,434.8589778,260,1,0
ADMIN-UCSF-,2017-05-10 15:11:40+00:00,2017-05-10 15:29:19+00:00,,Right,8,DG-03-KL-019,500,347.2729921,260,1,0
ADMIN-UCSF-,2017-05-10 15:11:40+00:00,2017-05-10 15:29:19+00:00,,Left,9,DG-03-KL-019,500,470.746994,340,1,0
ADMIN-UCSF-,2017-05-10 15:11:40+00:00,2017-05-10 15:29:19+00:00,,Right,9,DG-03-KL-019,500,331.142962,340,0,1
ADMIN-UCSF-,2017-05-10 15:11:40+00:00,2017-05-10 15:29:19+00:00,,Left,10,DG-03-KL-019,500,347.5739956,500,0,1
ADMIN-UCSF-,2017-05-10 15:11:40+00:00,2017-05-10 15:29:19+00:00,,Right,10,DG-03-KL-019,500,360.436976,330,1,0
ADMIN-UCSF-,2017-05-10 15:11:40+00:00,2017-05-10 15:29:19+00:00,,Left,11,DG-03-KL-019,500,345.4059958,490,0,1
ADMIN-UCSF-,2017-05-10 15:11:40+00:00,2017-05-10 15:29:19+00:00,,Right,11,DG-03-KL-019,500,339.1720057,370,0,1
ADMIN-UCSF-,2017-05-10 15:11:40+00:00,2017-05-10 15:29:19+00:00,,Left,12,DG-03-KL-019,500,332.2219849,480,0,1
ADMIN-UCSF-,2017-05-10 15:11:40+00:00,2017-05-10 15:29:19+00:00,,Right,12,DG-03-KL-019,500,393.68999,360,1,0
ADMIN-UCSF-,2017-05-10 15:11:40+00:00,2017-05-10 15:29:19+00:00,,Left,13,DG-03-KL-019,500,400.849998,460,0,1
ADMIN-UCSF-,2017-05-10 15:11:40+00:00,2017-05-10 15:29:19+00:00,,Right,13,DG-03-KL-019,500,370.4180121,400,0,1
ADMIN-UCSF-,2017-05-10 15:11:40+00:00,2017-05-10 15:29:19+00:00,,Left,14,DG-03-KL-019,500,352.3330092,420,0,1
ADMIN-UCSF-,2017-05-10 15:11:40+00:00,2017-05-10 15:29:19+00:00,,Right,14,DG-03-KL-019,500,355.0829887,390,0,1
ADMIN-UCSF-,2017-05-10 15:11:40+00:00,2017-05-10 15:29:19+00:00,,Left,15,DG-03-KL-019,500,373.7509847,340,1,0
ADMIN-UCSF-,2017-05-10 15:11:40+00:00,2017-05-10 15:29:19+00:00,,Right,15,DG-03-KL-019,500,421.5269685,380,1,0
ADMIN-UCSF-,2017-05-10 15:11:40+00:00,2017-05-10 15:29:19+00:00,,Left,16,DG-03-KL-019,500,349.767983,380,0,1
ADMIN-UCSF-,2017-05-10 15:11:40+00:00,2017-05-10 15:29:19+00:00,,Right,16,DG-03-KL-019,500,392.8549886,420,0,1
ADMIN-UCSF-,2017-05-10 15:11:40+00:00,2017-05-10 15:29:19+00:00,,Left,17,DG-03-KL-019,500,391.3369775,370,1,0
ADMIN-UCSF-,2017-05-10 15:11:40+00:00,2017-05-10 15:29:19+00:00,,Right,17,DG-03-KL-019,500,333.9049816,410,0,1
ADMIN-UCSF-,2017-05-10 15:11:40+00:00,2017-05-10 15:29:19+00:00,,Left,18,DG-03-KL-019,500,384.3439817,410,0,1
ADMIN-UCSF-,2017-05-10 15:11:40+00:00,2017-05-10 15:29:19+00:00,,Right,18,DG-03-KL-019,500,364.3609881,400,0,1
ADMIN-UCSF-,2017-05-10 15:11:40+00:00,2017-05-10 15:29:19+00:00,,Left,19,DG-03-KL-019,500,377.0359755,400,0,1
ADMIN-UCSF-,2017-05-10 15:11:40+00:00,2017-05-10 15:29:19+00:00,,Right,19,DG-03-KL-019,500,361.8609905,380,0,1
ADMIN-UCSF-,2017-05-09 00:42:32+00:00,2017-05-09 00:57:01+00:00,,Left,0,DG-03-BW-018,500,500,500,0,0
ADMIN-UCSF-,2017-05-09 00:42:32+00:00,2017-05-09 00:57:01+00:00,,Right,0,DG-03-BW-018,500,362.7930284,500,0,1
ADMIN-UCSF-,2017-05-09 00:42:32+00:00,2017-05-09 00:57:01+00:00,,Left,1,DG-03-BW-018,,,,,0
ADMIN-UCSF-,2017-05-09 00:42:32+00:00,2017-05-09 00:57:01+00:00,,Right,1,DG-03-BW-018,500,294.0789461,490,0,1
ADMIN-UCSF-,2017-05-09 00:42:32+00:00,2017-05-09 00:57:01+00:00,,Left,2,DG-03-BW-018,540,353.3130288,540,0,1
ADMIN-UCSF-,2017-05-09 00:42:32+00:00,2017-05-09 00:57:01+00:00,,Right,2,DG-03-BW-018,500,271.76404,480,0,1
ADMIN-UCSF-,2017-05-09 00:42:32+00:00,2017-05-09 00:57:01+00:00,,Left,3,DG-03-BW-018,540,276.2659788,530,0,1
ADMIN-UCSF-,2017-05-09 00:42:32+00:00,2017-05-09 00:57:01+00:00,,Right,3,DG-03-BW-018,500,258.0080032,460,0,1
ADMIN-UCSF-,2017-05-09 00:42:32+00:00,2017-05-09 00:57:01+00:00,,Left,4,DG-03-BW-018,540,296.9699502,520,0,1
ADMIN-UCSF-,2017-05-09 00:42:32+00:00,2017-05-09 00:57:01+00:00,,Right,4,DG-03-BW-018,500,276.4049768,420,0,1
ADMIN-UCSF-,2017-05-09 00:42:32+00:00,2017-05-09 00:57:01+00:00,,Left,5,DG-03-BW-018,540,317.7070022,500,0,1
ADMIN-UCSF-,2017-05-09 00:42:32+00:00,2017-05-09 00:57:01+00:00,,Right,5,DG-03-BW-018,500,374.9499917,340,1,0
ADMIN-UCSF-,2017-05-09 00:42:32+00:00,2017-05-09 00:57:01+00:00,,Left,6,DG-03-BW-018,540,270.8539963,460,0,1
ADMIN-UCSF-,2017-05-09 00:42:32+00:00,2017-05-09 00:57:01+00:00,,Right,6,DG-03-BW-018,500,319.4479942,380,0,1
ADMIN-UCSF-,2017-05-09 00:42:32+00:00,2017-05-09 00:57:01+00:00,,Left,7,DG-03-BW-018,540,283.5849524,380,0,1
ADMIN-UCSF-,2017-05-09 00:42:32+00:00,2017-05-09 00:57:01+00:00,,Right,7,DG-03-BW-018,500,323.5450387,370,0,1
ADMIN-UCSF-,2017-05-09 00:42:32+00:00,2017-05-09 00:57:01+00:00,,Left,8,DG-03-BW-018,540,296.2740064,220,1,0
ADMIN-UCSF-,2017-05-09 00:42:32+00:00,2017-05-09 00:57:01+00:00,,Right,8,DG-03-BW-018,500,345.5129862,360,0,1
ADMIN-UCSF-,2017-05-09 00:42:32+00:00,2017-05-09 00:57:01+00:00,,Left,9,DG-03-BW-018,540,347.5840092,260,1,0
ADMIN-UCSF-,2017-05-09 00:42:32+00:00,2017-05-09 00:57:01+00:00,,Right,9,DG-03-BW-018,500,298.3880043,340,0,1
ADMIN-UCSF-,2017-05-09 00:42:32+00:00,2017-05-09 00:57:01+00:00,,Left,10,DG-03-BW-018,540,285.4859829,300,0,1
ADMIN-UCSF-,2017-05-09 00:42:32+00:00,2017-05-09 00:57:01+00:00,,Right,10,DG-03-BW-018,500,267.6910162,300,0,1
ADMIN-UCSF-,2017-05-09 00:42:32+00:00,2017-05-09 00:57:01+00:00,,Left,11,DG-03-BW-018,540,390.1450038,290,1,0
ADMIN-UCSF-,2017-05-09 00:42:32+00:00,2017-05-09 00:57:01+00:00,,Right,11,DG-03-BW-018,500,281.0570002,220,1,0
ADMIN-UCSF-,2017-05-09 00:42:32+00:00,2017-05-09 00:57:01+00:00,,Left,12,DG-03-BW-018,540,391.274035,330,1,0
ADMIN-UCSF-,2017-05-09 00:42:32+00:00,2017-05-09 00:57:01+00:00,,Right,12,DG-03-BW-018,500,278.6189914,260,1,0
ADMIN-UCSF-,2017-05-09 00:42:32+00:00,2017-05-09 00:57:01+00:00,,Left,13,DG-03-BW-018,540,269.3240047,370,0,1
ADMIN-UCSF-,2017-05-09 00:42:32+00:00,2017-05-09 00:57:01+00:00,,Right,13,DG-03-BW-018,500,326.7969489,300,1,0
ADMIN-UCSF-,2017-05-09 00:42:32+00:00,2017-05-09 00:57:01+00:00,,Left,14,DG-03-BW-018,540,303.2659888,360,0,1
ADMIN-UCSF-,2017-05-09 00:42:32+00:00,2017-05-09 00:57:01+00:00,,Right,14,DG-03-BW-018,500,264.4129992,380,0,1
ADMIN-UCSF-,2017-05-09 00:42:32+00:00,2017-05-09 00:57:01+00:00,,Left,15,DG-03-BW-018,540,278.760016,350,0,1
ADMIN-UCSF-,2017-05-09 00:42:32+00:00,2017-05-09 00:57:01+00:00,,Right,15,DG-03-BW-018,500,383.4719658,370,1,0
ADMIN-UCSF-,2017-05-09 00:42:32+00:00,2017-05-09 00:57:01+00:00,,Left,16,DG-03-BW-018,540,258.0159903,330,0,1
ADMIN-UCSF-,2017-05-09 00:42:32+00:00,2017-05-09 00:57:01+00:00,,Right,16,DG-03-BW-018,500,280.0390124,410,0,1
ADMIN-UCSF-,2017-05-09 00:42:32+00:00,2017-05-09 00:57:01+00:00,,Left,17,DG-03-BW-018,540,311.7709756,290,1,0
ADMIN-UCSF-,2017-05-09 00:42:32+00:00,2017-05-09 00:57:01+00:00,,Right,17,DG-03-BW-018,500,270.6189752,400,0,1
ADMIN-UCSF-,2017-05-09 00:42:32+00:00,2017-05-09 00:57:01+00:00,,Left,18,DG-03-BW-018,540,275.200963,330,0,1
ADMIN-UCSF-,2017-05-09 00:42:32+00:00,2017-05-09 00:57:01+00:00,,Right,18,DG-03-BW-018,500,268.0729628,390,0,1
ADMIN-UCSF-,2017-05-09 00:42:32+00:00,2017-05-09 00:57:01+00:00,,Left,19,DG-03-BW-018,540,335.457027,320,1,0
ADMIN-UCSF-,2017-05-09 00:42:32+00:00,2017-05-09 00:57:01+00:00,,Right,19,DG-03-BW-018,500,255.1969886,370,0,1
ADMIN-UCSF-,2017-05-08 23:06:53+00:00,2017-05-08 23:24:04+00:00,,Left,0,DG-02-JH-026,500,500,500,0,0
ADMIN-UCSF-,2017-05-08 23:06:53+00:00,2017-05-08 23:24:04+00:00,,Right,0,DG-02-JH-026,500,310.9930158,500,0,1
ADMIN-UCSF-,2017-05-08 23:06:53+00:00,2017-05-08 23:24:04+00:00,,Left,1,DG-02-JH-026,,,,,0
ADMIN-UCSF-,2017-05-08 23:06:53+00:00,2017-05-08 23:24:04+00:00,,Right,1,DG-02-JH-026,500,355.701983,490,0,1
ADMIN-UCSF-,2017-05-08 23:06:53+00:00,2017-05-08 23:24:04+00:00,,Left,2,DG-02-JH-026,540,335.068047,540,0,1
ADMIN-UCSF-,2017-05-08 23:06:53+00:00,2017-05-08 23:24:04+00:00,,Right,2,DG-02-JH-026,500,318.1159496,480,0,1
ADMIN-UCSF-,2017-05-08 23:06:53+00:00,2017-05-08 23:24:04+00:00,,Left,3,DG-02-JH-026,540,301.5150428,530,0,1
ADMIN-UCSF-,2017-05-08 23:06:53+00:00,2017-05-08 23:24:04+00:00,,Right,3,DG-02-JH-026,500,352.1959782,460,0,1
ADMIN-UCSF-,2017-05-08 23:06:53+00:00,2017-05-08 23:24:04+00:00,,Left,4,DG-02-JH-026,540,434.7259998,520,0,1
ADMIN-UCSF-,2017-05-08 23:06:53+00:00,2017-05-08 23:24:04+00:00,,Right,4,DG-02-JH-026,500,341.2389755,420,0,1
ADMIN-UCSF-,2017-05-08 23:06:53+00:00,2017-05-08 23:24:04+00:00,,Left,5,DG-02-JH-026,540,317.2460198,500,0,1
ADMIN-UCSF-,2017-05-08 23:06:53+00:00,2017-05-08 23:24:04+00:00,,Right,5,DG-02-JH-026,500,322.2979903,340,0,1
ADMIN-UCSF-,2017-05-08 23:06:53+00:00,2017-05-08 23:24:04+00:00,,Left,6,DG-02-JH-026,540,377.8899908,460,0,1
ADMIN-UCSF-,2017-05-08 23:06:53+00:00,2017-05-08 23:24:04+00:00,,Right,6,DG-02-JH-026,500,389.4270062,180,1,0
ADMIN-UCSF-,2017-05-08 23:06:53+00:00,2017-05-08 23:24:04+00:00,,Left,7,DG-02-JH-026,540,259.6780062,380,0,1
ADMIN-UCSF-,2017-05-08 23:06:53+00:00,2017-05-08 23:24:04+00:00,,Right,7,DG-02-JH-026,500,340.7859802,220,1,0
ADMIN-UCSF-,2017-05-08 23:06:53+00:00,2017-05-08 23:24:04+00:00,,Left,8,DG-02-JH-026,540,301.0179996,220,1,0
ADMIN-UCSF-,2017-05-08 23:06:53+00:00,2017-05-08 23:24:04+00:00,,Right,8,DG-02-JH-026,500,348.6959934,260,1,0
ADMIN-UCSF-,2017-05-08 23:06:53+00:00,2017-05-08 23:24:04+00:00,,Left,9,DG-02-JH-026,540,299.7460365,260,1,0
ADMIN-UCSF-,2017-05-08 23:06:53+00:00,2017-05-08 23:24:04+00:00,,Right,9,DG-02-JH-026,500,348.4700322,340,1,0
ADMIN-UCSF-,2017-05-08 23:06:53+00:00,2017-05-08 23:24:04+00:00,,Left,10,DG-02-JH-026,540,351.4680266,300,1,0
ADMIN-UCSF-,2017-05-08 23:06:53+00:00,2017-05-08 23:24:04+00:00,,Right,10,DG-02-JH-026,500,346.8649983,500,0,1
ADMIN-UCSF-,2017-05-08 23:06:53+00:00,2017-05-08 23:24:04+00:00,,Left,11,DG-02-JH-026,540,285.7810259,380,0,1
ADMIN-UCSF-,2017-05-08 23:06:53+00:00,2017-05-08 23:24:04+00:00,,Right,11,DG-02-JH-026,500,361.2659574,490,0,1
ADMIN-UCSF-,2017-05-08 23:06:53+00:00,2017-05-08 23:24:04+00:00,,Left,12,DG-02-JH-026,,,,,0
ADMIN-UCSF-,2017-05-08 23:06:53+00:00,2017-05-08 23:24:04+00:00,,Right,12,DG-02-JH-026,500,346.947968,480,0,1
ADMIN-UCSF-,2017-05-08 23:06:53+00:00,2017-05-08 23:24:04+00:00,,Left,13,DG-02-JH-026,540,434.2660308,370,1,0
ADMIN-UCSF-,2017-05-08 23:06:53+00:00,2017-05-08 23:24:04+00:00,,Right,13,DG-02-JH-026,500,352.7640104,460,0,1
ADMIN-UCSF-,2017-05-08 23:06:53+00:00,2017-05-08 23:24:04+00:00,,Left,14,DG-02-JH-026,,,,,0
ADMIN-UCSF-,2017-05-08 23:06:53+00:00,2017-05-08 23:24:04+00:00,,Right,14,DG-02-JH-026,500,381.6379905,420,0,1
ADMIN-UCSF-,2017-05-08 23:06:53+00:00,2017-05-08 23:24:04+00:00,,Left,15,DG-02-JH-026,540,475.6039977,410,1,0
ADMIN-UCSF-,2017-05-08 23:06:53+00:00,2017-05-08 23:24:04+00:00,,Right,15,DG-02-JH-026,500,325.6070018,340,0,1
ADMIN-UCSF-,2017-05-08 23:06:53+00:00,2017-05-08 23:24:04+00:00,,Left,16,DG-02-JH-026,540,433.2389832,450,0,1
ADMIN-UCSF-,2017-05-08 23:06:53+00:00,2017-05-08 23:24:04+00:00,,Right,16,DG-02-JH-026,500,352.3200154,180,1,0
ADMIN-UCSF-,2017-05-08 23:06:53+00:00,2017-05-08 23:24:04+00:00,,Left,17,DG-02-JH-026,540,410.6289744,440,0,1
ADMIN-UCSF-,2017-05-08 23:06:53+00:00,2017-05-08 23:24:04+00:00,,Right,17,DG-02-JH-026,500,288.2760167,220,1,0
ADMIN-UCSF-,2017-05-08 23:06:53+00:00,2017-05-08 23:24:04+00:00,,Left,18,DG-02-JH-026,540,525.579989,430,1,0
ADMIN-UCSF-,2017-05-08 23:06:53+00:00,2017-05-08 23:24:04+00:00,,Right,18,DG-02-JH-026,500,425.9050488,260,1,0
ADMIN-UCSF-,2017-05-08 23:06:53+00:00,2017-05-08 23:24:04+00:00,,Left,19,DG-02-JH-026,540,436.0769987,470,0,1
ADMIN-UCSF-,2017-05-08 23:06:53+00:00,2017-05-08 23:24:04+00:00,,Right,19,DG-02-JH-026,500,403.0500054,340,1,0
ADMIN-UCSF-,2017-05-08 22:32:45+00:00,2017-05-08 22:49:23+00:00,,Left,0,DG-01-EH-023,500,500,500,0,0
ADMIN-UCSF-,2017-05-08 22:32:45+00:00,2017-05-08 22:49:23+00:00,,Right,0,DG-01-EH-023,500,500,500,0,0
ADMIN-UCSF-,2017-05-08 22:32:45+00:00,2017-05-08 22:49:23+00:00,,Left,1,DG-01-EH-023,,,,,0
ADMIN-UCSF-,2017-05-08 22:32:45+00:00,2017-05-08 22:49:23+00:00,,Right,1,DG-01-EH-023,,,,,0
ADMIN-UCSF-,2017-05-08 22:32:45+00:00,2017-05-08 22:49:23+00:00,,Left,2,DG-01-EH-023,540,308.0909848,540,0,1
ADMIN-UCSF-,2017-05-08 22:32:45+00:00,2017-05-08 22:49:23+00:00,,Right,2,DG-01-EH-023,540,248.7139702,540,0,1
ADMIN-UCSF-,2017-05-08 22:32:45+00:00,2017-05-08 22:49:23+00:00,,Left,3,DG-01-EH-023,540,279.2999744,530,0,1
ADMIN-UCSF-,2017-05-08 22:32:45+00:00,2017-05-08 22:49:23+00:00,,Right,3,DG-01-EH-023,540,380.885005,530,0,1
ADMIN-UCSF-,2017-05-08 22:32:45+00:00,2017-05-08 22:49:23+00:00,,Left,4,DG-01-EH-023,540,293.249011,520,0,1
ADMIN-UCSF-,2017-05-08 22:32:45+00:00,2017-05-08 22:49:23+00:00,,Right,4,DG-01-EH-023,540,398.8720179,520,0,1
ADMIN-UCSF-,2017-05-08 22:32:45+00:00,2017-05-08 22:49:23+00:00,,Left,5,DG-01-EH-023,540,285.4329944,500,0,1
ADMIN-UCSF-,2017-05-08 22:32:45+00:00,2017-05-08 22:49:23+00:00,,Right,5,DG-01-EH-023,540,333.9010477,500,0,1
ADMIN-UCSF-,2017-05-08 22:32:45+00:00,2017-05-08 22:49:23+00:00,,Left,6,DG-01-EH-023,540,319.6150064,460,0,1
ADMIN-UCSF-,2017-05-08 22:32:45+00:00,2017-05-08 22:49:23+00:00,,Right,6,DG-01-EH-023,540,308.4949851,460,0,1
ADMIN-UCSF-,2017-05-08 22:32:45+00:00,2017-05-08 22:49:23+00:00,,Left,7,DG-01-EH-023,540,307.1269989,380,0,1
ADMIN-UCSF-,2017-05-08 22:32:45+00:00,2017-05-08 22:49:23+00:00,,Right,7,DG-01-EH-023,540,332.7309489,380,0,1
ADMIN-UCSF-,2017-05-08 22:32:45+00:00,2017-05-08 22:49:23+00:00,,Left,8,DG-01-EH-023,540,290.3500199,220,1,0
ADMIN-UCSF-,2017-05-08 22:32:45+00:00,2017-05-08 22:49:23+00:00,,Right,8,DG-01-EH-023,540,299.3279696,220,1,0
ADMIN-UCSF-,2017-05-08 22:32:45+00:00,2017-05-08 22:49:23+00:00,,Left,9,DG-01-EH-023,540,389.0169859,260,1,0
ADMIN-UCSF-,2017-05-08 22:32:45+00:00,2017-05-08 22:49:23+00:00,,Right,9,DG-01-EH-023,540,330.910027,260,1,0
ADMIN-UCSF-,2017-05-08 22:32:45+00:00,2017-05-08 22:49:23+00:00,,Left,10,DG-01-EH-023,540,440.4499531,300,1,0
ADMIN-UCSF-,2017-05-08 22:32:45+00:00,2017-05-08 22:49:23+00:00,,Right,10,DG-01-EH-023,540,410.7580185,300,1,0
ADMIN-UCSF-,2017-05-08 22:32:45+00:00,2017-05-08 22:49:23+00:00,,Left,11,DG-01-EH-023,540,324.9210119,380,0,1
ADMIN-UCSF-,2017-05-08 22:32:45+00:00,2017-05-08 22:49:23+00:00,,Right,11,DG-01-EH-023,540,342.6989913,380,0,1
ADMIN-UCSF-,2017-05-08 22:32:45+00:00,2017-05-08 22:49:23+00:00,,Left,12,DG-01-EH-023,540,321.4769959,370,0,1
ADMIN-UCSF-,2017-05-08 22:32:45+00:00,2017-05-08 22:49:23+00:00,,Right,12,DG-01-EH-023,540,435.1869822,370,1,0
ADMIN-UCSF-,2017-05-08 22:32:45+00:00,2017-05-08 22:49:23+00:00,,Left,13,DG-01-EH-023,540,292.7950025,360,0,1
ADMIN-UCSF-,2017-05-08 22:32:45+00:00,2017-05-08 22:49:23+00:00,,Right,13,DG-01-EH-023,540,376.6389489,410,0,1
ADMIN-UCSF-,2017-05-08 22:32:45+00:00,2017-05-08 22:49:23+00:00,,Left,14,DG-01-EH-023,540,306.7120314,340,0,1
ADMIN-UCSF-,2017-05-08 22:32:45+00:00,2017-05-08 22:49:23+00:00,,Right,14,DG-01-EH-023,540,354.4740081,400,0,1
ADMIN-UCSF-,2017-05-08 22:32:45+00:00,2017-05-08 22:49:23+00:00,,Left,15,DG-01-EH-023,540,299.0940213,300,0,1
ADMIN-UCSF-,2017-05-08 22:32:45+00:00,2017-05-08 22:49:23+00:00,,Right,15,DG-01-EH-023,540,362.2279763,390,0,1
ADMIN-UCSF-,2017-05-08 22:32:45+00:00,2017-05-08 22:49:23+00:00,,Left,16,DG-01-EH-023,540,441.1830306,220,1,0
ADMIN-UCSF-,2017-05-08 22:32:45+00:00,2017-05-08 22:49:23+00:00,,Right,16,DG-01-EH-023,540,410.0919962,370,1,0
ADMIN-UCSF-,2017-05-08 22:32:45+00:00,2017-05-08 22:49:23+00:00,,Left,17,DG-01-EH-023,540,390.2059793,260,1,0
ADMIN-UCSF-,2017-05-08 22:32:45+00:00,2017-05-08 22:49:23+00:00,,Right,17,DG-01-EH-023,540,426.0200262,410,1,0
ADMIN-UCSF-,2017-05-08 22:32:45+00:00,2017-05-08 22:49:23+00:00,,Left,18,DG-01-EH-023,540,290.7679677,300,0,1
ADMIN-UCSF-,2017-05-08 22:32:45+00:00,2017-05-08 22:49:23+00:00,,Right,18,DG-01-EH-023,540,494.0620065,450,1,0
ADMIN-UCSF-,2017-05-08 22:32:45+00:00,2017-05-08 22:49:23+00:00,,Left,19,DG-01-EH-023,540,458.7770104,290,1,0
ADMIN-UCSF-,2017-05-08 22:32:45+00:00,2017-05-08 22:49:23+00:00,,Right,19,DG-01-EH-023,540,392.350018,530,0,1
ADMIN-UCSF-,2017-04-28 19:22:05+00:00,2017-05-08 22:21:28+00:00,,Left,0,DG-01-EH-023,500,297.4650264,500,0,1
ADMIN-UCSF-,2017-04-28 19:22:05+00:00,2017-05-08 22:21:28+00:00,,Right,0,DG-01-EH-023,500,301.1509776,500,0,1
ADMIN-UCSF-,2017-04-28 19:22:05+00:00,2017-05-08 22:21:28+00:00,,Left,1,DG-01-EH-023,500,299.7180223,490,0,1
ADMIN-UCSF-,2017-04-28 19:22:05+00:00,2017-05-08 22:21:28+00:00,,Right,1,DG-01-EH-023,500,291.8899655,490,0,1
ADMIN-UCSF-,2017-04-28 19:22:05+00:00,2017-05-08 22:21:28+00:00,,Left,2,DG-01-EH-023,500,298.5589504,480,0,1
ADMIN-UCSF-,2017-04-28 19:22:05+00:00,2017-05-08 22:21:28+00:00,,Right,2,DG-01-EH-023,500,290.1459932,480,0,1
ADMIN-UCSF-,2017-04-28 19:22:05+00:00,2017-05-08 22:21:28+00:00,,Left,3,DG-01-EH-023,500,345.4680443,460,0,1
ADMIN-UCSF-,2017-04-28 19:22:05+00:00,2017-05-08 22:21:28+00:00,,Right,3,DG-01-EH-023,500,281.3169956,460,0,1
ADMIN-UCSF-,2017-04-28 19:22:05+00:00,2017-05-08 22:21:28+00:00,,Left,4,DG-01-EH-023,500,291.2449837,420,0,1
ADMIN-UCSF-,2017-04-28 19:22:05+00:00,2017-05-08 22:21:28+00:00,,Right,4,DG-01-EH-023,500,289.6040082,420,0,1
ADMIN-UCSF-,2017-04-28 19:22:05+00:00,2017-05-08 22:21:28+00:00,,Left,5,DG-01-EH-023,500,310.8110428,340,0,1
ADMIN-UCSF-,2017-04-28 19:22:05+00:00,2017-05-08 22:21:28+00:00,,Right,5,DG-01-EH-023,500,294.6919799,340,0,1
ADMIN-UCSF-,2017-04-28 19:22:05+00:00,2017-05-08 22:21:28+00:00,,Left,6,DG-01-EH-023,500,310.1710081,180,1,0
ADMIN-UCSF-,2017-04-28 19:22:05+00:00,2017-05-08 22:21:28+00:00,,Right,6,DG-01-EH-023,500,297.9420424,180,1,0
ADMIN-UCSF-,2017-04-28 19:22:05+00:00,2017-05-08 22:21:28+00:00,,Left,7,DG-01-EH-023,500,317.7680373,220,1,0
ADMIN-UCSF-,2017-04-28 19:22:05+00:00,2017-05-08 22:21:28+00:00,,Right,7,DG-01-EH-023,500,351.0940075,220,1,0
ADMIN-UCSF-,2017-04-28 19:22:05+00:00,2017-05-08 22:21:28+00:00,,Left,8,DG-01-EH-023,500,325.5789876,260,1,0
ADMIN-UCSF-,2017-04-28 19:22:05+00:00,2017-05-08 22:21:28+00:00,,Right,8,DG-01-EH-023,500,284.7399712,260,1,0
ADMIN-UCSF-,2017-04-28 19:22:05+00:00,2017-05-08 22:21:28+00:00,,Left,9,DG-01-EH-023,500,275.4409909,340,0,1
ADMIN-UCSF-,2017-04-28 19:22:05+00:00,2017-05-08 22:21:28+00:00,,Right,9,DG-01-EH-023,500,296.5400219,340,0,1
ADMIN-UCSF-,2017-04-28 19:22:05+00:00,2017-05-08 22:21:28+00:00,,Left,10,DG-01-EH-023,500,259.164989,330,0,1
ADMIN-UCSF-,2017-04-28 19:22:05+00:00,2017-05-08 22:21:28+00:00,,Right,10,DG-01-EH-023,500,287.3910069,330,0,1
ADMIN-UCSF-,2017-04-28 19:22:05+00:00,2017-05-08 22:21:28+00:00,,Left,11,DG-01-EH-023,500,254.2459965,320,0,1
ADMIN-UCSF-,2017-04-28 19:22:05+00:00,2017-05-08 22:21:28+00:00,,Right,11,DG-01-EH-023,500,313.2870197,320,0,1
ADMIN-UCSF-,2017-04-28 19:22:05+00:00,2017-05-08 22:21:28+00:00,,Left,12,DG-01-EH-023,500,64.9420023,300,1,0
ADMIN-UCSF-,2017-04-28 19:22:05+00:00,2017-05-08 22:21:28+00:00,,Right,12,DG-01-EH-023,500,435.4549646,300,1,0
ADMIN-UCSF-,2017-04-28 19:22:05+00:00,2017-05-08 22:21:28+00:00,,Left,13,DG-01-EH-023,500,309.484005,340,0,1
ADMIN-UCSF-,2017-04-28 19:22:05+00:00,2017-05-08 22:21:28+00:00,,Right,13,DG-01-EH-023,500,354.6099663,340,1,0
ADMIN-UCSF-,2017-04-28 19:22:05+00:00,2017-05-08 22:21:28+00:00,,Left,14,DG-01-EH-023,500,306.9050312,330,0,1
ADMIN-UCSF-,2017-04-28 19:22:05+00:00,2017-05-08 22:21:28+00:00,,Right,14,DG-01-EH-023,500,293.4979796,380,0,1
ADMIN-UCSF-,2017-04-28 19:22:05+00:00,2017-05-08 22:21:28+00:00,,Left,15,DG-01-EH-023,500,293.258965,320,0,1
ADMIN-UCSF-,2017-04-28 19:22:05+00:00,2017-05-08 22:21:28+00:00,,Right,15,DG-01-EH-023,500,316.9890046,370,0,1
ADMIN-UCSF-,2017-04-28 19:22:05+00:00,2017-05-08 22:21:28+00:00,,Left,16,DG-01-EH-023,500,326.8290162,300,1,0
ADMIN-UCSF-,2017-04-28 19:22:05+00:00,2017-05-08 22:21:28+00:00,,Right,16,DG-01-EH-023,500,327.0110488,360,0,1
ADMIN-UCSF-,2017-04-28 19:22:05+00:00,2017-05-08 22:21:28+00:00,,Left,17,DG-01-EH-023,500,301.1199832,340,0,1
ADMIN-UCSF-,2017-04-28 19:22:05+00:00,2017-05-08 22:21:28+00:00,,Right,17,DG-01-EH-023,500,312.2720122,340,0,1
ADMIN-UCSF-,2017-04-28 19:22:05+00:00,2017-05-08 22:21:28+00:00,,Left,18,DG-01-EH-023,500,289.0250087,330,0,1
ADMIN-UCSF-,2017-04-28 19:22:05+00:00,2017-05-08 22:21:28+00:00,,Right,18,DG-01-EH-023,500,261.1790299,300,0,1
ADMIN-UCSF-,2017-04-28 19:22:05+00:00,2017-05-08 22:21:28+00:00,,Left,19,DG-01-EH-023,500,284.0519547,320,0,1
ADMIN-UCSF-,2017-04-28 19:22:05+00:00,2017-05-08 22:21:28+00:00,,Right,19,DG-01-EH-023,500,258.9600086,220,1,0
ADMIN-UCSF-,2017-05-05 16:31:37+00:00,2017-05-05 16:48:14+00:00,,Left,0,DG-01-TR-022,500,410.5989933,500,0,1
ADMIN-UCSF-,2017-05-05 16:31:37+00:00,2017-05-05 16:48:14+00:00,,Right,0,DG-01-TR-022,500,426.469028,500,0,1
ADMIN-UCSF-,2017-05-05 16:31:37+00:00,2017-05-05 16:48:14+00:00,,Left,1,DG-01-TR-022,500,335.4029655,490,0,1
ADMIN-UCSF-,2017-05-05 16:31:37+00:00,2017-05-05 16:48:14+00:00,,Right,1,DG-01-TR-022,500,340.247035,490,0,1
ADMIN-UCSF-,2017-05-05 16:31:37+00:00,2017-05-05 16:48:14+00:00,,Left,2,DG-01-TR-022,500,326.7530203,480,0,1
ADMIN-UCSF-,2017-05-05 16:31:37+00:00,2017-05-05 16:48:14+00:00,,Right,2,DG-01-TR-022,500,442.6490068,480,0,1
ADMIN-UCSF-,2017-05-05 16:31:37+00:00,2017-05-05 16:48:14+00:00,,Left,3,DG-01-TR-022,500,283.63204,460,0,1
ADMIN-UCSF-,2017-05-05 16:31:37+00:00,2017-05-05 16:48:14+00:00,,Right,3,DG-01-TR-022,500,290.546,460,0,1
ADMIN-UCSF-,2017-05-05 16:31:37+00:00,2017-05-05 16:48:14+00:00,,Left,4,DG-01-TR-022,500,284.8809958,420,0,1
ADMIN-UCSF-,2017-05-05 16:31:37+00:00,2017-05-05 16:48:14+00:00,,Right,4,DG-01-TR-022,500,457.4760199,420,1,0
ADMIN-UCSF-,2017-05-05 16:31:37+00:00,2017-05-05 16:48:14+00:00,,Left,5,DG-01-TR-022,500,334.4010115,340,0,1
ADMIN-UCSF-,2017-05-05 16:31:37+00:00,2017-05-05 16:48:14+00:00,,Right,5,DG-01-TR-022,500,414.0349627,460,0,1
ADMIN-UCSF-,2017-05-05 16:31:37+00:00,2017-05-05 16:48:14+00:00,,Left,6,DG-01-TR-022,500,402.7419686,180,1,0
ADMIN-UCSF-,2017-05-05 16:31:37+00:00,2017-05-05 16:48:14+00:00,,Right,6,DG-01-TR-022,500,396.697998,450,0,1
ADMIN-UCSF-,2017-05-05 16:31:37+00:00,2017-05-05 16:48:14+00:00,,Left,7,DG-01-TR-022,500,443.7320232,220,1,0
ADMIN-UCSF-,2017-05-05 16:31:37+00:00,2017-05-05 16:48:14+00:00,,Right,7,DG-01-TR-022,500,415.3490067,440,0,1
ADMIN-UCSF-,2017-05-05 16:31:37+00:00,2017-05-05 16:48:14+00:00,,Left,8,DG-01-TR-022,500,384.4510317,260,1,0
ADMIN-UCSF-,2017-05-05 16:31:37+00:00,2017-05-05 16:48:14+00:00,,Right,8,DG-01-TR-022,500,339.6700025,420,0,1
ADMIN-UCSF-,2017-05-05 16:31:37+00:00,2017-05-05 16:48:14+00:00,,Left,9,DG-01-TR-022,500,413.654983,340,1,0
ADMIN-UCSF-,2017-05-05 16:31:37+00:00,2017-05-05 16:48:14+00:00,,Right,9,DG-01-TR-022,500,335.5270028,380,0,1
ADMIN-UCSF-,2017-05-05 16:31:37+00:00,2017-05-05 16:48:14+00:00,,Left,10,DG-01-TR-022,500,334.0089917,500,0,1
ADMIN-UCSF-,2017-05-05 16:31:37+00:00,2017-05-05 16:48:14+00:00,,Right,10,DG-01-TR-022,500,320.5139637,300,1,0
ADMIN-UCSF-,2017-05-05 16:31:37+00:00,2017-05-05 16:48:14+00:00,,Left,11,DG-01-TR-022,500,358.3750129,490,0,1
ADMIN-UCSF-,2017-05-05 16:31:37+00:00,2017-05-05 16:48:14+00:00,,Right,11,DG-01-TR-022,500,380.9210062,340,1,0
ADMIN-UCSF-,2017-05-05 16:31:37+00:00,2017-05-05 16:48:14+00:00,,Left,12,DG-01-TR-022,500,335.2969885,480,0,1
ADMIN-UCSF-,2017-05-05 16:31:37+00:00,2017-05-05 16:48:14+00:00,,Right,12,DG-01-TR-022,500,384.995997,380,1,0
ADMIN-UCSF-,2017-05-05 16:31:37+00:00,2017-05-05 16:48:14+00:00,,Left,13,DG-01-TR-022,500,331.7149878,460,0,1
ADMIN-UCSF-,2017-05-05 16:31:37+00:00,2017-05-05 16:48:14+00:00,,Right,13,DG-01-TR-022,500,343.4849977,460,0,1
ADMIN-UCSF-,2017-05-05 16:31:37+00:00,2017-05-05 16:48:14+00:00,,Left,14,DG-01-TR-022,500,425.7059693,420,1,0
ADMIN-UCSF-,2017-05-05 16:31:37+00:00,2017-05-05 16:48:14+00:00,,Right,14,DG-01-TR-022,500,311.168015,450,0,1
ADMIN-UCSF-,2017-05-05 16:31:37+00:00,2017-05-05 16:48:14+00:00,,Left,15,DG-01-TR-022,500,442.6980019,460,0,1
ADMIN-UCSF-,2017-05-05 16:31:37+00:00,2017-05-05 16:48:14+00:00,,Right,15,DG-01-TR-022,500,376.3279915,440,0,1
ADMIN-UCSF-,2017-05-05 16:31:37+00:00,2017-05-05 16:48:14+00:00,,Left,16,DG-01-TR-022,500,432.000041,450,0,1
ADMIN-UCSF-,2017-05-05 16:31:37+00:00,2017-05-05 16:48:14+00:00,,Right,16,DG-01-TR-022,500,318.614006,420,0,1
ADMIN-UCSF-,2017-05-05 16:31:37+00:00,2017-05-05 16:48:14+00:00,,Left,17,DG-01-TR-022,500,449.0910172,440,1,0
ADMIN-UCSF-,2017-05-05 16:31:37+00:00,2017-05-05 16:48:14+00:00,,Right,17,DG-01-TR-022,500,335.3090286,380,0,1
ADMIN-UCSF-,2017-05-05 16:31:37+00:00,2017-05-05 16:48:14+00:00,,Left,18,DG-01-TR-022,500,433.1770539,480,0,1
ADMIN-UCSF-,2017-05-05 16:31:37+00:00,2017-05-05 16:48:14+00:00,,Right,18,DG-01-TR-022,500,318.8100457,300,1,0
ADMIN-UCSF-,2017-05-05 16:31:37+00:00,2017-05-05 16:48:14+00:00,,Left,19,DG-01-TR-022,500,473.2909799,470,1,0
ADMIN-UCSF-,2017-05-05 16:31:37+00:00,2017-05-05 16:48:14+00:00,,Right,19,DG-01-TR-022,500,500,340,1,0
ADMIN-UCSF-,2017-05-05 16:31:37+00:00,2017-05-05 16:48:14+00:00,,Right,20,DG-01-TR-022,,,,,0
ADMIN-UCSF-,2017-05-02 22:32:11+00:00,2017-05-02 22:47:45+00:00,,Left,0,DG-02-TA-025,500,500,500,0,0
ADMIN-UCSF-,2017-05-02 22:32:11+00:00,2017-05-02 22:47:45+00:00,,Right,0,DG-02-TA-025,,,,,0
ADMIN-UCSF-,2017-05-02 22:32:11+00:00,2017-05-02 22:47:45+00:00,,Left,1,DG-02-TA-025,,,,,0
ADMIN-UCSF-,2017-05-02 22:32:11+00:00,2017-05-02 22:47:45+00:00,,Right,1,DG-02-TA-025,500,500,500,0,0
ADMIN-UCSF-,2017-05-02 22:32:11+00:00,2017-05-02 22:47:45+00:00,,Left,2,DG-02-TA-025,540,377.992034,540,0,1
ADMIN-UCSF-,2017-05-02 22:32:11+00:00,2017-05-02 22:47:45+00:00,,Right,2,DG-02-TA-025,,,,,0
ADMIN-UCSF-,2017-05-02 22:32:11+00:00,2017-05-02 22:47:45+00:00,,Left,3,DG-02-TA-025,540,351.2320518,530,0,1
ADMIN-UCSF-,2017-05-02 22:32:11+00:00,2017-05-02 22:47:45+00:00,,Right,3,DG-02-TA-025,540,389.0889883,540,0,1
ADMIN-UCSF-,2017-05-02 22:32:11+00:00,2017-05-02 22:47:45+00:00,,Left,4,DG-02-TA-025,540,376.0300279,520,0,1
ADMIN-UCSF-,2017-05-02 22:32:11+00:00,2017-05-02 22:47:45+00:00,,Right,4,DG-02-TA-025,540,424.2119789,530,0,1
ADMIN-UCSF-,2017-05-02 22:32:11+00:00,2017-05-02 22:47:45+00:00,,Left,5,DG-02-TA-025,540,352.2549868,500,0,1
ADMIN-UCSF-,2017-05-02 22:32:11+00:00,2017-05-02 22:47:45+00:00,,Right,5,DG-02-TA-025,540,356.3799858,520,0,1
ADMIN-UCSF-,2017-05-02 22:32:11+00:00,2017-05-02 22:47:45+00:00,,Left,6,DG-02-TA-025,540,350.9870172,460,0,1
ADMIN-UCSF-,2017-05-02 22:32:11+00:00,2017-05-02 22:47:45+00:00,,Right,6,DG-02-TA-025,540,321.525991,500,0,1
ADMIN-UCSF-,2017-05-02 22:32:11+00:00,2017-05-02 22:47:45+00:00,,Left,7,DG-02-TA-025,540,333.9879513,380,0,1
ADMIN-UCSF-,2017-05-02 22:32:11+00:00,2017-05-02 22:47:45+00:00,,Right,7,DG-02-TA-025,540,214.6539688,460,0,1
ADMIN-UCSF-,2017-05-02 22:32:11+00:00,2017-05-02 22:47:45+00:00,,Left,8,DG-02-TA-025,540,368.9239621,220,1,0
ADMIN-UCSF-,2017-05-02 22:32:11+00:00,2017-05-02 22:47:45+00:00,,Right,8,DG-02-TA-025,540,339.6280408,380,0,1
ADMIN-UCSF-,2017-05-02 22:32:11+00:00,2017-05-02 22:47:45+00:00,,Left,9,DG-02-TA-025,540,347.6589918,260,1,0
ADMIN-UCSF-,2017-05-02 22:32:11+00:00,2017-05-02 22:47:45+00:00,,Right,9,DG-02-TA-025,540,178.7599921,220,0,1
ADMIN-UCSF-,2017-05-02 22:32:11+00:00,2017-05-02 22:47:45+00:00,,Left,10,DG-02-TA-025,540,344.0679908,300,1,0
ADMIN-UCSF-,2017-05-02 22:32:11+00:00,2017-05-02 22:47:45+00:00,,Right,10,DG-02-TA-025,540,322.4499822,150,1,0
ADMIN-UCSF-,2017-05-02 22:32:11+00:00,2017-05-02 22:47:45+00:00,,Left,11,DG-02-TA-025,540,417.239964,380,1,0
ADMIN-UCSF-,2017-05-02 22:32:11+00:00,2017-05-02 22:47:45+00:00,,Right,11,DG-02-TA-025,540,317.3639774,190,1,0
ADMIN-UCSF-,2017-05-02 22:32:11+00:00,2017-05-02 22:47:45+00:00,,Left,12,DG-02-TA-025,540,401.7630219,540,0,1
ADMIN-UCSF-,2017-05-02 22:32:11+00:00,2017-05-02 22:47:45+00:00,,Right,12,DG-02-TA-025,540,318.4460402,230,1,0
ADMIN-UCSF-,2017-05-02 22:32:11+00:00,2017-05-02 22:47:45+00:00,,Left,13,DG-02-TA-025,540,332.8859806,530,0,1
ADMIN-UCSF-,2017-05-02 22:32:11+00:00,2017-05-02 22:47:45+00:00,,Right,13,DG-02-TA-025,540,304.4700027,310,0,1
ADMIN-UCSF-,2017-05-02 22:32:11+00:00,2017-05-02 22:47:45+00:00,,Left,14,DG-02-TA-025,540,347.5000262,520,0,1
ADMIN-UCSF-,2017-05-02 22:32:11+00:00,2017-05-02 22:47:45+00:00,,Right,14,DG-02-TA-025,540,144.4370151,300,1,0
ADMIN-UCSF-,2017-05-02 22:32:11+00:00,2017-05-02 22:47:45+00:00,,Left,15,DG-02-TA-025,540,360.5290055,500,0,1
ADMIN-UCSF-,2017-05-02 22:32:11+00:00,2017-05-02 22:47:45+00:00,,Right,15,DG-02-TA-025,540,320.5649853,340,0,1
ADMIN-UCSF-,2017-05-02 22:32:11+00:00,2017-05-02 22:47:45+00:00,,Left,16,DG-02-TA-025,540,380.4659843,460,0,1
ADMIN-UCSF-,2017-05-02 22:32:11+00:00,2017-05-02 22:47:45+00:00,,Right,16,DG-02-TA-025,540,260.5000138,330,0,1
ADMIN-UCSF-,2017-05-02 22:32:11+00:00,2017-05-02 22:47:45+00:00,,Left,17,DG-02-TA-025,540,351.1509895,380,0,1
ADMIN-UCSF-,2017-05-02 22:32:11+00:00,2017-05-02 22:47:45+00:00,,Right,17,DG-02-TA-025,540,304.2159677,320,0,1
ADMIN-UCSF-,2017-05-02 22:32:11+00:00,2017-05-02 22:47:45+00:00,,Left,18,DG-02-TA-025,540,375.4540086,220,1,0
ADMIN-UCSF-,2017-05-02 22:32:11+00:00,2017-05-02 22:47:45+00:00,,Right,18,DG-02-TA-025,540,361.8050218,300,1,0
ADMIN-UCSF-,2017-05-02 22:32:11+00:00,2017-05-02 22:47:45+00:00,,Left,19,DG-02-TA-025,540,370.0990081,260,1,0
ADMIN-UCSF-,2017-05-02 22:32:11+00:00,2017-05-02 22:47:45+00:00,,Right,19,DG-02-TA-025,540,110.6750369,340,1,0
ADMIN-UCSF-,2017-04-27 20:24:53+00:00,2017-04-27 20:53:37+00:00,,Left,0,DG-03-TR-020,500,378.7039518,500,0,1
ADMIN-UCSF-,2017-04-27 20:24:53+00:00,2017-04-27 20:53:37+00:00,,Right,0,DG-03-TR-020,500,285.8969569,500,0,1
ADMIN-UCSF-,2017-04-27 20:24:53+00:00,2017-04-27 20:53:37+00:00,,Left,1,DG-03-TR-020,500,273.2689977,490,0,1
ADMIN-UCSF-,2017-04-27 20:24:53+00:00,2017-04-27 20:53:37+00:00,,Right,1,DG-03-TR-020,500,266.5140033,490,0,1
ADMIN-UCSF-,2017-04-27 20:24:53+00:00,2017-04-27 20:53:37+00:00,,Left,2,DG-03-TR-020,500,281.1929584,480,0,1
ADMIN-UCSF-,2017-04-27 20:24:53+00:00,2017-04-27 20:53:37+00:00,,Right,2,DG-03-TR-020,500,291.5139794,480,0,1
ADMIN-UCSF-,2017-04-27 20:24:53+00:00,2017-04-27 20:53:37+00:00,,Left,3,DG-03-TR-020,500,265.0789618,460,0,1
ADMIN-UCSF-,2017-04-27 20:24:53+00:00,2017-04-27 20:53:37+00:00,,Right,3,DG-03-TR-020,500,292.3820019,460,0,1
ADMIN-UCSF-,2017-04-27 20:24:53+00:00,2017-04-27 20:53:37+00:00,,Left,4,DG-03-TR-020,500,297.6000309,420,0,1
ADMIN-UCSF-,2017-04-27 20:24:53+00:00,2017-04-27 20:53:37+00:00,,Right,4,DG-03-TR-020,500,265.4579878,420,0,1
ADMIN-UCSF-,2017-04-27 20:24:53+00:00,2017-04-27 20:53:37+00:00,,Left,5,DG-03-TR-020,500,385.0280046,340,1,0
ADMIN-UCSF-,2017-04-27 20:24:53+00:00,2017-04-27 20:53:37+00:00,,Right,5,DG-03-TR-020,500,374.8369813,340,1,0
ADMIN-UCSF-,2017-04-27 20:24:53+00:00,2017-04-27 20:53:37+00:00,,Left,6,DG-03-TR-020,500,259.8060369,380,0,1
ADMIN-UCSF-,2017-04-27 20:24:53+00:00,2017-04-27 20:53:37+00:00,,Right,6,DG-03-TR-020,500,262.1770501,380,0,1
ADMIN-UCSF-,2017-04-27 20:24:53+00:00,2017-04-27 20:53:37+00:00,,Left,7,DG-03-TR-020,500,259.7550154,370,0,1
ADMIN-UCSF-,2017-04-27 20:24:53+00:00,2017-04-27 20:53:37+00:00,,Right,7,DG-03-TR-020,500,302.947998,370,0,1
ADMIN-UCSF-,2017-04-27 20:24:53+00:00,2017-04-27 20:53:37+00:00,,Left,8,DG-03-TR-020,500,243.5670495,360,0,1
ADMIN-UCSF-,2017-04-27 20:24:53+00:00,2017-04-27 20:53:37+00:00,,Right,8,DG-03-TR-020,500,285.3599787,360,0,1
ADMIN-UCSF-,2017-04-27 20:24:53+00:00,2017-04-27 20:53:37+00:00,,Left,9,DG-03-TR-020,500,254.8810244,340,0,1
ADMIN-UCSF-,2017-04-27 20:24:53+00:00,2017-04-27 20:53:37+00:00,,Right,9,DG-03-TR-020,500,287.7530456,340,0,1
ADMIN-UCSF-,2017-04-27 20:24:53+00:00,2017-04-27 20:53:37+00:00,,Left,10,DG-03-TR-020,500,354.7780514,300,1,0
ADMIN-UCSF-,2017-04-27 20:24:53+00:00,2017-04-27 20:53:37+00:00,,Right,10,DG-03-TR-020,500,264.0050054,300,0,1
ADMIN-UCSF-,2017-04-27 20:24:53+00:00,2017-04-27 20:53:37+00:00,,Left,11,DG-03-TR-020,500,280.3730369,340,0,1
ADMIN-UCSF-,2017-04-27 20:24:53+00:00,2017-04-27 20:53:37+00:00,,Right,11,DG-03-TR-020,500,299.0419865,220,1,0
ADMIN-UCSF-,2017-04-27 20:24:53+00:00,2017-04-27 20:53:37+00:00,,Left,12,DG-03-TR-020,500,310.8629584,330,0,1
ADMIN-UCSF-,2017-04-27 20:24:53+00:00,2017-04-27 20:53:37+00:00,,Right,12,DG-03-TR-020,500,468.5789943,260,1,0
ADMIN-UCSF-,2017-04-27 20:24:53+00:00,2017-04-27 20:53:37+00:00,,Left,13,DG-03-TR-020,500,334.0069652,320,1,0
ADMIN-UCSF-,2017-04-27 20:24:53+00:00,2017-04-27 20:53:37+00:00,,Right,13,DG-03-TR-020,500,247.5959659,300,0,1
ADMIN-UCSF-,2017-04-27 20:24:53+00:00,2017-04-27 20:53:37+00:00,,Left,14,DG-03-TR-020,500,299.0800142,360,0,1
ADMIN-UCSF-,2017-04-27 20:24:53+00:00,2017-04-27 20:53:37+00:00,,Right,14,DG-03-TR-020,500,163.6350155,290,0,1
ADMIN-UCSF-,2017-04-27 20:24:53+00:00,2017-04-27 20:53:37+00:00,,Left,15,DG-03-TR-020,500,310.1750016,350,0,1
ADMIN-UCSF-,2017-04-27 20:24:53+00:00,2017-04-27 20:53:37+00:00,,Right,15,DG-03-TR-020,500,270.5649734,280,0,1
ADMIN-UCSF-,2017-04-27 20:24:53+00:00,2017-04-27 20:53:37+00:00,,Left,16,DG-03-TR-020,500,315.1550293,340,0,1
ADMIN-UCSF-,2017-04-27 20:24:53+00:00,2017-04-27 20:53:37+00:00,,Right,16,DG-03-TR-020,500,282.6049924,260,1,0
ADMIN-UCSF-,2017-04-27 20:24:53+00:00,2017-04-27 20:53:37+00:00,,Left,17,DG-03-TR-020,500,297.8219986,320,0,1
ADMIN-UCSF-,2017-04-27 20:24:53+00:00,2017-04-27 20:53:37+00:00,,Right,17,DG-03-TR-020,500,293.3749557,300,0,1
ADMIN-UCSF-,2017-04-27 20:24:53+00:00,2017-04-27 20:53:37+00:00,,Left,18,DG-03-TR-020,500,302.3009896,280,1,0
ADMIN-UCSF-,2017-04-27 20:24:53+00:00,2017-04-27 20:53:37+00:00,,Right,18,DG-03-TR-020,500,302.1560311,290,1,0
ADMIN-UCSF-,2017-04-27 20:24:53+00:00,2017-04-27 20:53:37+00:00,,Left,19,DG-03-TR-020,500,323.5909939,320,1,0
ADMIN-UCSF-,2017-04-27 20:24:53+00:00,2017-04-27 20:53:37+00:00,,Right,19,DG-03-TR-020,500,274.8979926,330,0,1
ADMIN-UCSF-,2017-04-27 15:39:07+00:00,2017-04-27 15:55:09+00:00,,Left,0,DG-02-JV-016,500,420.0739861,500,0,1
ADMIN-UCSF-,2017-04-27 15:39:07+00:00,2017-04-27 15:55:09+00:00,,Right,0,DG-02-JV-016,500,384.4770193,500,0,1
ADMIN-UCSF-,2017-04-27 15:39:07+00:00,2017-04-27 15:55:09+00:00,,Left,1,DG-02-JV-016,500,363.6780381,490,0,1
ADMIN-UCSF-,2017-04-27 15:39:07+00:00,2017-04-27 15:55:09+00:00,,Right,1,DG-02-JV-016,500,301.4689684,490,0,1
ADMIN-UCSF-,2017-04-27 15:39:07+00:00,2017-04-27 15:55:09+00:00,,Left,2,DG-02-JV-016,500,295.3370214,480,0,1
ADMIN-UCSF-,2017-04-27 15:39:07+00:00,2017-04-27 15:55:09+00:00,,Right,2,DG-02-JV-016,500,307.7110052,480,0,1
ADMIN-UCSF-,2017-04-27 15:39:07+00:00,2017-04-27 15:55:09+00:00,,Left,3,DG-02-JV-016,500,303.7939668,460,0,1
ADMIN-UCSF-,2017-04-27 15:39:07+00:00,2017-04-27 15:55:09+00:00,,Right,3,DG-02-JV-016,500,283.946991,460,0,1
ADMIN-UCSF-,2017-04-27 15:39:07+00:00,2017-04-27 15:55:09+00:00,,Left,4,DG-02-JV-016,500,293.6300039,420,0,1
ADMIN-UCSF-,2017-04-27 15:39:07+00:00,2017-04-27 15:55:09+00:00,,Right,4,DG-02-JV-016,500,241.8220043,420,0,1
ADMIN-UCSF-,2017-04-27 15:39:07+00:00,2017-04-27 15:55:09+00:00,,Left,5,DG-02-JV-016,500,302.382946,340,0,1
ADMIN-UCSF-,2017-04-27 15:39:07+00:00,2017-04-27 15:55:09+00:00,,Right,5,DG-02-JV-016,500,364.4129634,340,1,0
ADMIN-UCSF-,2017-04-27 15:39:07+00:00,2017-04-27 15:55:09+00:00,,Left,6,DG-02-JV-016,500,310.3849888,180,1,0
ADMIN-UCSF-,2017-04-27 15:39:07+00:00,2017-04-27 15:55:09+00:00,,Right,6,DG-02-JV-016,500,326.407969,380,0,1
ADMIN-UCSF-,2017-04-27 15:39:07+00:00,2017-04-27 15:55:09+00:00,,Left,7,DG-02-JV-016,500,292.8630114,220,1,0
ADMIN-UCSF-,2017-04-27 15:39:07+00:00,2017-04-27 15:55:09+00:00,,Right,7,DG-02-JV-016,500,338.3129835,370,0,1
ADMIN-UCSF-,2017-04-27 15:39:07+00:00,2017-04-27 15:55:09+00:00,,Left,8,DG-02-JV-016,500,357.9409719,260,1,0
ADMIN-UCSF-,2017-04-27 15:39:07+00:00,2017-04-27 15:55:09+00:00,,Right,8,DG-02-JV-016,500,298.0539799,360,0,1
ADMIN-UCSF-,2017-04-27 15:39:07+00:00,2017-04-27 15:55:09+00:00,,Left,9,DG-02-JV-016,500,309.7160459,340,0,1
ADMIN-UCSF-,2017-04-27 15:39:07+00:00,2017-04-27 15:55:09+00:00,,Right,9,DG-02-JV-016,500,302.1689653,340,0,1
ADMIN-UCSF-,2017-04-27 15:39:07+00:00,2017-04-27 15:55:09+00:00,,Left,10,DG-02-JV-016,500,316.8260455,330,0,1
ADMIN-UCSF-,2017-04-27 15:39:07+00:00,2017-04-27 15:55:09+00:00,,Right,10,DG-02-JV-016,500,412.2629762,300,1,0
ADMIN-UCSF-,2017-04-27 15:39:07+00:00,2017-04-27 15:55:09+00:00,,Left,11,DG-02-JV-016,500,352.8349996,320,1,0
ADMIN-UCSF-,2017-04-27 15:39:07+00:00,2017-04-27 15:55:09+00:00,,Right,11,DG-02-JV-016,500,322.8120208,340,0,1
ADMIN-UCSF-,2017-04-27 15:39:07+00:00,2017-04-27 15:55:09+00:00,,Left,12,DG-02-JV-016,500,306.6980243,360,0,1
ADMIN-UCSF-,2017-04-27 15:39:07+00:00,2017-04-27 15:55:09+00:00,,Right,12,DG-02-JV-016,500,316.7600036,330,0,1
ADMIN-UCSF-,2017-04-27 15:39:07+00:00,2017-04-27 15:55:09+00:00,,Left,13,DG-02-JV-016,500,310.066998,350,0,1
ADMIN-UCSF-,2017-04-27 15:39:07+00:00,2017-04-27 15:55:09+00:00,,Right,13,DG-02-JV-016,500,344.9279666,320,1,0
ADMIN-UCSF-,2017-04-27 15:39:07+00:00,2017-04-27 15:55:09+00:00,,Left,14,DG-02-JV-016,500,274.254024,340,0,1
ADMIN-UCSF-,2017-04-27 15:39:07+00:00,2017-04-27 15:55:09+00:00,,Right,14,DG-02-JV-016,500,322.1189976,360,0,1
ADMIN-UCSF-,2017-04-27 15:39:07+00:00,2017-04-27 15:55:09+00:00,,Left,15,DG-02-JV-016,500,283.411026,320,0,1
ADMIN-UCSF-,2017-04-27 15:39:07+00:00,2017-04-27 15:55:09+00:00,,Right,15,DG-02-JV-016,500,385.0049973,350,1,0
ADMIN-UCSF-,2017-04-27 15:39:07+00:00,2017-04-27 15:55:09+00:00,,Left,16,DG-02-JV-016,500,316.6350126,280,1,0
ADMIN-UCSF-,2017-04-27 15:39:07+00:00,2017-04-27 15:55:09+00:00,,Right,16,DG-02-JV-016,500,367.3700094,390,0,1
ADMIN-UCSF-,2017-04-27 15:39:07+00:00,2017-04-27 15:55:09+00:00,,Left,17,DG-02-JV-016,500,299.8059988,320,0,1
ADMIN-UCSF-,2017-04-27 15:39:07+00:00,2017-04-27 15:55:09+00:00,,Right,17,DG-02-JV-016,500,335.6620073,380,0,1
ADMIN-UCSF-,2017-04-27 15:39:07+00:00,2017-04-27 15:55:09+00:00,,Left,18,DG-02-JV-016,500,299.2939949,310,0,1
ADMIN-UCSF-,2017-04-27 15:39:07+00:00,2017-04-27 15:55:09+00:00,,Right,18,DG-02-JV-016,500,436.2369776,370,1,0
ADMIN-UCSF-,2017-04-27 15:39:07+00:00,2017-04-27 15:55:09+00:00,,Left,19,DG-02-JV-016,500,315.3420091,300,1,0
ADMIN-UCSF-,2017-04-27 15:39:07+00:00,2017-04-27 15:55:09+00:00,,Right,19,DG-02-JV-016,500,301.82302,410,0,1
ADMIN-UCSF-,2017-04-27 00:06:19+00:00,2017-04-27 00:24:09+00:00,,Left,0,DG-01-RS-020,500,344.4280028,500,0,1
ADMIN-UCSF-,2017-04-27 00:06:19+00:00,2017-04-27 00:24:09+00:00,,Right,0,DG-01-RS-020,500,169.6040034,500,0,1
ADMIN-UCSF-,2017-04-27 00:06:19+00:00,2017-04-27 00:24:09+00:00,,Left,1,DG-01-RS-020,500,275.6970525,490,0,1
ADMIN-UCSF-,2017-04-27 00:06:19+00:00,2017-04-27 00:24:09+00:00,,Right,1,DG-01-RS-020,500,374.499023,490,0,1
ADMIN-UCSF-,2017-04-27 00:06:19+00:00,2017-04-27 00:24:09+00:00,,Left,2,DG-01-RS-020,500,285.0390077,480,0,1
ADMIN-UCSF-,2017-04-27 00:06:19+00:00,2017-04-27 00:24:09+00:00,,Right,2,DG-01-RS-020,500,398.1140256,480,0,1
ADMIN-UCSF-,2017-04-27 00:06:19+00:00,2017-04-27 00:24:09+00:00,,Left,3,DG-01-RS-020,500,260.612011,460,0,1
ADMIN-UCSF-,2017-04-27 00:06:19+00:00,2017-04-27 00:24:09+00:00,,Right,3,DG-01-RS-020,500,292.5289869,460,0,1
ADMIN-UCSF-,2017-04-27 00:06:19+00:00,2017-04-27 00:24:09+00:00,,Left,4,DG-01-RS-020,500,276.481986,420,0,1
ADMIN-UCSF-,2017-04-27 00:06:19+00:00,2017-04-27 00:24:09+00:00,,Right,4,DG-01-RS-020,500,500,420,1,0
ADMIN-UCSF-,2017-04-27 00:06:19+00:00,2017-04-27 00:24:09+00:00,,Left,5,DG-01-RS-020,500,401.8399715,340,1,0
ADMIN-UCSF-,2017-04-27 00:06:19+00:00,2017-04-27 00:24:09+00:00,,Right,5,DG-01-RS-020,,,,,0
ADMIN-UCSF-,2017-04-27 00:06:19+00:00,2017-04-27 00:24:09+00:00,,Left,6,DG-01-RS-020,500,226.9640565,380,0,1
ADMIN-UCSF-,2017-04-27 00:06:19+00:00,2017-04-27 00:24:09+00:00,,Right,6,DG-01-RS-020,500,311.8050098,460,0,1
ADMIN-UCSF-,2017-04-27 00:06:19+00:00,2017-04-27 00:24:09+00:00,,Left,7,DG-01-RS-020,500,283.9260101,370,0,1
ADMIN-UCSF-,2017-04-27 00:06:19+00:00,2017-04-27 00:24:09+00:00,,Right,7,DG-01-RS-020,500,275.1120329,450,0,1
ADMIN-UCSF-,2017-04-27 00:06:19+00:00,2017-04-27 00:24:09+00:00,,Left,8,DG-01-RS-020,500,295.0260043,360,0,1
ADMIN-UCSF-,2017-04-27 00:06:19+00:00,2017-04-27 00:24:09+00:00,,Right,8,DG-01-RS-020,500,297.8810072,440,0,1
ADMIN-UCSF-,2017-04-27 00:06:19+00:00,2017-04-27 00:24:09+00:00,,Left,9,DG-01-RS-020,500,349.0009904,340,1,0
ADMIN-UCSF-,2017-04-27 00:06:19+00:00,2017-04-27 00:24:09+00:00,,Right,9,DG-01-RS-020,500,346.6280103,420,0,1
ADMIN-UCSF-,2017-04-27 00:06:19+00:00,2017-04-27 00:24:09+00:00,,Left,10,DG-01-RS-020,500,234.7490191,380,0,1
ADMIN-UCSF-,2017-04-27 00:06:19+00:00,2017-04-27 00:24:09+00:00,,Right,10,DG-01-RS-020,500,247.0539808,380,0,1
ADMIN-UCSF-,2017-04-27 00:06:19+00:00,2017-04-27 00:24:09+00:00,,Left,11,DG-01-RS-020,500,294.6459651,370,0,1
ADMIN-UCSF-,2017-04-27 00:06:19+00:00,2017-04-27 00:24:09+00:00,,Right,11,DG-01-RS-020,500,327.1430135,300,1,0
ADMIN-UCSF-,2017-04-27 00:06:19+00:00,2017-04-27 00:24:09+00:00,,Left,12,DG-01-RS-020,500,272.2949982,360,0,1
ADMIN-UCSF-,2017-04-27 00:06:19+00:00,2017-04-27 00:24:09+00:00,,Right,12,DG-01-RS-020,500,470.6940055,340,1,0
ADMIN-UCSF-,2017-04-27 00:06:19+00:00,2017-04-27 00:24:09+00:00,,Left,13,DG-01-RS-020,500,275.5519748,340,0,1
ADMIN-UCSF-,2017-04-27 00:06:19+00:00,2017-04-27 00:24:09+00:00,,Right,13,DG-01-RS-020,500,378.5229921,380,0,1
ADMIN-UCSF-,2017-04-27 00:06:19+00:00,2017-04-27 00:24:09+00:00,,Left,14,DG-01-RS-020,500,242.6699996,300,0,1
ADMIN-UCSF-,2017-04-27 00:06:19+00:00,2017-04-27 00:24:09+00:00,,Right,14,DG-01-RS-020,500,396.9589472,370,1,0
ADMIN-UCSF-,2017-04-27 00:06:19+00:00,2017-04-27 00:24:09+00:00,,Left,15,DG-01-RS-020,500,278.4240246,220,1,0
ADMIN-UCSF-,2017-04-27 00:06:19+00:00,2017-04-27 00:24:09+00:00,,Right,15,DG-01-RS-020,500,276.3670087,410,0,1
ADMIN-UCSF-,2017-04-27 00:06:19+00:00,2017-04-27 00:24:09+00:00,,Left,16,DG-01-RS-020,500,312.3109937,260,1,0
ADMIN-UCSF-,2017-04-27 00:06:19+00:00,2017-04-27 00:24:09+00:00,,Right,16,DG-01-RS-020,500,328.7090063,400,0,1
ADMIN-UCSF-,2017-04-27 00:06:19+00:00,2017-04-27 00:24:09+00:00,,Left,17,DG-01-RS-020,500,309.3050122,300,1,0
ADMIN-UCSF-,2017-04-27 00:06:19+00:00,2017-04-27 00:24:09+00:00,,Right,17,DG-01-RS-020,500,341.6050076,390,0,1
ADMIN-UCSF-,2017-04-27 00:06:19+00:00,2017-04-27 00:24:09+00:00,,Left,18,DG-01-RS-020,500,340.8489823,380,0,1
ADMIN-UCSF-,2017-04-27 00:06:19+00:00,2017-04-27 00:24:09+00:00,,Right,18,DG-01-RS-020,500,442.5619841,370,1,0
ADMIN-UCSF-,2017-04-27 00:06:19+00:00,2017-04-27 00:24:09+00:00,,Left,19,DG-01-RS-020,500,290.0390029,370,0,1
ADMIN-UCSF-,2017-04-27 00:06:19+00:00,2017-04-27 00:24:09+00:00,,Right,19,DG-01-RS-020,500,388.0300522,410,0,1
ADMIN-UCSF-,2017-04-26 23:48:21+00:00,2017-04-27 00:08:11+00:00,,Left,0,DG-01-ZA-021,500,500,500,0,0
ADMIN-UCSF-,2017-04-26 23:48:21+00:00,2017-04-27 00:08:11+00:00,,Right,0,DG-01-ZA-021,500,375.3089905,500,0,1
ADMIN-UCSF-,2017-04-26 23:48:21+00:00,2017-04-27 00:08:11+00:00,,Left,1,DG-01-ZA-021,,,,,0
ADMIN-UCSF-,2017-04-26 23:48:21+00:00,2017-04-27 00:08:11+00:00,,Right,1,DG-01-ZA-021,500,307.641983,490,0,1
ADMIN-UCSF-,2017-04-26 23:48:21+00:00,2017-04-27 00:08:11+00:00,,Left,2,DG-01-ZA-021,540,345.4329967,540,0,1
ADMIN-UCSF-,2017-04-26 23:48:21+00:00,2017-04-27 00:08:11+00:00,,Right,2,DG-01-ZA-021,500,326.7730474,480,0,1
ADMIN-UCSF-,2017-04-26 23:48:21+00:00,2017-04-27 00:08:11+00:00,,Left,3,DG-01-ZA-021,540,233.1809998,530,0,1
ADMIN-UCSF-,2017-04-26 23:48:21+00:00,2017-04-27 00:08:11+00:00,,Right,3,DG-01-ZA-021,500,281.7999721,460,0,1
ADMIN-UCSF-,2017-04-26 23:48:21+00:00,2017-04-27 00:08:11+00:00,,Left,4,DG-01-ZA-021,540,301.8910289,520,0,1
ADMIN-UCSF-,2017-04-26 23:48:21+00:00,2017-04-27 00:08:11+00:00,,Right,4,DG-01-ZA-021,500,315.3090477,420,0,1
ADMIN-UCSF-,2017-04-26 23:48:21+00:00,2017-04-27 00:08:11+00:00,,Left,5,DG-01-ZA-021,540,249.8619556,500,0,1
ADMIN-UCSF-,2017-04-26 23:48:21+00:00,2017-04-27 00:08:11+00:00,,Right,5,DG-01-ZA-021,500,283.6390138,340,0,1
ADMIN-UCSF-,2017-04-26 23:48:21+00:00,2017-04-27 00:08:11+00:00,,Left,6,DG-01-ZA-021,540,271.1830139,460,0,1
ADMIN-UCSF-,2017-04-26 23:48:21+00:00,2017-04-27 00:08:11+00:00,,Right,6,DG-01-ZA-021,500,286.610961,180,1,0
ADMIN-UCSF-,2017-04-26 23:48:21+00:00,2017-04-27 00:08:11+00:00,,Left,7,DG-01-ZA-021,540,231.128037,380,0,1
ADMIN-UCSF-,2017-04-26 23:48:21+00:00,2017-04-27 00:08:11+00:00,,Right,7,DG-01-ZA-021,500,312.4070168,220,1,0
ADMIN-UCSF-,2017-04-26 23:48:21+00:00,2017-04-27 00:08:11+00:00,,Left,8,DG-01-ZA-021,540,259.2740059,220,1,0
ADMIN-UCSF-,2017-04-26 23:48:21+00:00,2017-04-27 00:08:11+00:00,,Right,8,DG-01-ZA-021,500,273.5130191,260,1,0
ADMIN-UCSF-,2017-04-26 23:48:21+00:00,2017-04-27 00:08:11+00:00,,Left,9,DG-01-ZA-021,540,303.6180139,260,1,0
ADMIN-UCSF-,2017-04-26 23:48:21+00:00,2017-04-27 00:08:11+00:00,,Right,9,DG-01-ZA-021,500,266.7639852,340,0,1
ADMIN-UCSF-,2017-04-26 23:48:21+00:00,2017-04-27 00:08:11+00:00,,Left,10,DG-01-ZA-021,540,292.3580408,300,0,1
ADMIN-UCSF-,2017-04-26 23:48:21+00:00,2017-04-27 00:08:11+00:00,,Right,10,DG-01-ZA-021,500,269.4259882,330,0,1
ADMIN-UCSF-,2017-04-26 23:48:21+00:00,2017-04-27 00:08:11+00:00,,Left,11,DG-01-ZA-021,540,262.1429563,290,0,1
ADMIN-UCSF-,2017-04-26 23:48:21+00:00,2017-04-27 00:08:11+00:00,,Right,11,DG-01-ZA-021,500,262.9809976,320,0,1
ADMIN-UCSF-,2017-04-26 23:48:21+00:00,2017-04-27 00:08:11+00:00,,Left,12,DG-01-ZA-021,540,276.3980031,280,0,1
ADMIN-UCSF-,2017-04-26 23:48:21+00:00,2017-04-27 00:08:11+00:00,,Right,12,DG-01-ZA-021,500,263.3769512,300,0,1
ADMIN-UCSF-,2017-04-26 23:48:21+00:00,2017-04-27 00:08:11+00:00,,Left,13,DG-01-ZA-021,540,286.9640589,260,1,0
ADMIN-UCSF-,2017-04-26 23:48:21+00:00,2017-04-27 00:08:11+00:00,,Right,13,DG-01-ZA-021,500,261.8260384,260,1,0
ADMIN-UCSF-,2017-04-26 23:48:21+00:00,2017-04-27 00:08:11+00:00,,Left,14,DG-01-ZA-021,540,260.7629895,300,0,1
ADMIN-UCSF-,2017-04-26 23:48:21+00:00,2017-04-27 00:08:11+00:00,,Right,14,DG-01-ZA-021,500,263.1980181,300,0,1
ADMIN-UCSF-,2017-04-26 23:48:21+00:00,2017-04-27 00:08:11+00:00,,Left,15,DG-01-ZA-021,540,241.9400215,290,0,1
ADMIN-UCSF-,2017-04-26 23:48:21+00:00,2017-04-27 00:08:11+00:00,,Right,15,DG-01-ZA-021,500,269.4040537,290,0,1
ADMIN-UCSF-,2017-04-26 23:48:21+00:00,2017-04-27 00:08:11+00:00,,Left,16,DG-01-ZA-021,540,251.4899969,280,0,1
ADMIN-UCSF-,2017-04-26 23:48:21+00:00,2017-04-27 00:08:11+00:00,,Right,16,DG-01-ZA-021,500,286.7640257,280,1,0
ADMIN-UCSF-,2017-04-26 23:48:21+00:00,2017-04-27 00:08:11+00:00,,Left,17,DG-01-ZA-021,540,258.6479783,260,0,1
ADMIN-UCSF-,2017-04-26 23:48:21+00:00,2017-04-27 00:08:11+00:00,,Right,17,DG-01-ZA-021,500,335.8439803,320,1,0
ADMIN-UCSF-,2017-04-26 23:48:21+00:00,2017-04-27 00:08:11+00:00,,Left,18,DG-01-ZA-021,540,256.8789721,220,1,0
ADMIN-UCSF-,2017-04-26 23:48:21+00:00,2017-04-27 00:08:11+00:00,,Right,18,DG-01-ZA-021,500,285.450995,360,0,1
ADMIN-UCSF-,2017-04-26 23:48:21+00:00,2017-04-27 00:08:11+00:00,,Left,19,DG-01-ZA-021,540,51.0519743,260,1,0
ADMIN-UCSF-,2017-04-26 23:48:21+00:00,2017-04-27 00:08:11+00:00,,Right,19,DG-01-ZA-021,500,354.6929955,350,1,0
ADMIN-UCSF-,2017-04-26 17:55:42+00:00,2017-04-26 18:11:00+00:00,,Left,0,DG-03-LS-013,500,369.2880273,500,0,1
ADMIN-UCSF-,2017-04-26 17:55:42+00:00,2017-04-26 18:11:00+00:00,,Right,0,DG-03-LS-013,500,436.6840124,500,0,1
ADMIN-UCSF-,2017-04-26 17:55:42+00:00,2017-04-26 18:11:00+00:00,,Left,1,DG-03-LS-013,500,249.0689754,490,0,1
ADMIN-UCSF-,2017-04-26 17:55:42+00:00,2017-04-26 18:11:00+00:00,,Right,1,DG-03-LS-013,500,300.9250164,490,0,1
ADMIN-UCSF-,2017-04-26 17:55:42+00:00,2017-04-26 18:11:00+00:00,,Left,2,DG-03-LS-013,500,328.872025,480,0,1
ADMIN-UCSF-,2017-04-26 17:55:42+00:00,2017-04-26 18:11:00+00:00,,Right,2,DG-03-LS-013,500,308.1409931,480,0,1
ADMIN-UCSF-,2017-04-26 17:55:42+00:00,2017-04-26 18:11:00+00:00,,Left,3,DG-03-LS-013,500,341.4279819,460,0,1
ADMIN-UCSF-,2017-04-26 17:55:42+00:00,2017-04-26 18:11:00+00:00,,Right,3,DG-03-LS-013,500,267.4359679,460,0,1
ADMIN-UCSF-,2017-04-26 17:55:42+00:00,2017-04-26 18:11:00+00:00,,Left,4,DG-03-LS-013,500,500,420,1,0
ADMIN-UCSF-,2017-04-26 17:55:42+00:00,2017-04-26 18:11:00+00:00,,Right,4,DG-03-LS-013,500,260.2210045,420,0,1
ADMIN-UCSF-,2017-04-26 17:55:42+00:00,2017-04-26 18:11:00+00:00,,Left,5,DG-03-LS-013,,,,,0
ADMIN-UCSF-,2017-04-26 17:55:42+00:00,2017-04-26 18:11:00+00:00,,Right,5,DG-03-LS-013,500,378.944993,340,1,0
ADMIN-UCSF-,2017-04-26 17:55:42+00:00,2017-04-26 18:11:00+00:00,,Left,6,DG-03-LS-013,500,330.3909898,460,0,1
ADMIN-UCSF-,2017-04-26 17:55:42+00:00,2017-04-26 18:11:00+00:00,,Right,6,DG-03-LS-013,500,388.0089521,380,1,0
ADMIN-UCSF-,2017-04-26 17:55:42+00:00,2017-04-26 18:11:00+00:00,,Left,7,DG-03-LS-013,500,458.178997,450,1,0
ADMIN-UCSF-,2017-04-26 17:55:42+00:00,2017-04-26 18:11:00+00:00,,Right,7,DG-03-LS-013,500,257.0750117,420,0,1
ADMIN-UCSF-,2017-04-26 17:55:42+00:00,2017-04-26 18:11:00+00:00,,Left,8,DG-03-LS-013,500,500,490,1,0
ADMIN-UCSF-,2017-04-26 17:55:42+00:00,2017-04-26 18:11:00+00:00,,Right,8,DG-03-LS-013,500,266.6719556,410,0,1
ADMIN-UCSF-,2017-04-26 17:55:42+00:00,2017-04-26 18:11:00+00:00,,Left,9,DG-03-LS-013,,,,,0
ADMIN-UCSF-,2017-04-26 17:55:42+00:00,2017-04-26 18:11:00+00:00,,Right,9,DG-03-LS-013,500,297.096014,400,0,1
ADMIN-UCSF-,2017-04-26 17:55:42+00:00,2017-04-26 18:11:00+00:00,,Left,10,DG-03-LS-013,530,350.5679965,530,0,1
ADMIN-UCSF-,2017-04-26 17:55:42+00:00,2017-04-26 18:11:00+00:00,,Right,10,DG-03-LS-013,500,232.3479652,380,0,1
ADMIN-UCSF-,2017-04-26 17:55:42+00:00,2017-04-26 18:11:00+00:00,,Left,11,DG-03-LS-013,530,304.1719794,520,0,1
ADMIN-UCSF-,2017-04-26 17:55:42+00:00,2017-04-26 18:11:00+00:00,,Right,11,DG-03-LS-013,500,267.2460079,340,0,1
ADMIN-UCSF-,2017-04-26 17:55:42+00:00,2017-04-26 18:11:00+00:00,,Left,12,DG-03-LS-013,530,342.4909711,510,0,1
ADMIN-UCSF-,2017-04-26 17:55:42+00:00,2017-04-26 18:11:00+00:00,,Right,12,DG-03-LS-013,500,312.9609823,260,1,0
ADMIN-UCSF-,2017-04-26 17:55:42+00:00,2017-04-26 18:11:00+00:00,,Left,13,DG-03-LS-013,530,283.6959958,490,0,1
ADMIN-UCSF-,2017-04-26 17:55:42+00:00,2017-04-26 18:11:00+00:00,,Right,13,DG-03-LS-013,500,329.761982,300,1,0
ADMIN-UCSF-,2017-04-26 17:55:42+00:00,2017-04-26 18:11:00+00:00,,Left,14,DG-03-LS-013,530,426.429987,450,0,1
ADMIN-UCSF-,2017-04-26 17:55:42+00:00,2017-04-26 18:11:00+00:00,,Right,14,DG-03-LS-013,500,351.9150019,340,1,0
ADMIN-UCSF-,2017-04-26 17:55:42+00:00,2017-04-26 18:11:00+00:00,,Left,15,DG-03-LS-013,530,530,370,1,0
ADMIN-UCSF-,2017-04-26 17:55:42+00:00,2017-04-26 18:11:00+00:00,,Right,15,DG-03-LS-013,500,270.9590197,420,0,1
ADMIN-UCSF-,2017-04-26 17:55:42+00:00,2017-04-26 18:11:00+00:00,,Left,16,DG-03-LS-013,,,,,0
ADMIN-UCSF-,2017-04-26 17:55:42+00:00,2017-04-26 18:11:00+00:00,,Right,16,DG-03-LS-013,500,335.7239962,410,0,1
ADMIN-UCSF-,2017-04-26 17:55:42+00:00,2017-04-26 18:11:00+00:00,,Left,17,DG-03-LS-013,530,292.3579812,410,0,1
ADMIN-UCSF-,2017-04-26 17:55:42+00:00,2017-04-26 18:11:00+00:00,,Right,17,DG-03-LS-013,500,228.006959,400,0,1
ADMIN-UCSF-,2017-04-26 17:55:42+00:00,2017-04-26 18:11:00+00:00,,Left,18,DG-03-LS-013,530,258.630991,400,0,1
ADMIN-UCSF-,2017-04-26 17:55:42+00:00,2017-04-26 18:11:00+00:00,,Right,18,DG-03-LS-013,500,261.9839907,380,0,1
ADMIN-UCSF-,2017-04-26 17:55:42+00:00,2017-04-26 18:11:00+00:00,,Left,19,DG-03-LS-013,530,399.0370035,390,1,0
ADMIN-UCSF-,2017-04-26 17:55:42+00:00,2017-04-26 18:11:00+00:00,,Right,19,DG-03-LS-013,500,248.8240004,340,0,1
ADMIN-UCSF-,2017-04-26 17:12:45+00:00,2017-04-26 17:29:23+00:00,,Left,0,DG-01-PA-019,500,298.8740206,500,0,1
ADMIN-UCSF-,2017-04-26 17:12:45+00:00,2017-04-26 17:29:23+00:00,,Right,0,DG-01-PA-019,500,320.2770352,500,0,1
ADMIN-UCSF-,2017-04-26 17:12:45+00:00,2017-04-26 17:29:23+00:00,,Left,1,DG-01-PA-019,500,266.0239935,490,0,1
ADMIN-UCSF-,2017-04-26 17:12:45+00:00,2017-04-26 17:29:23+00:00,,Right,1,DG-01-PA-019,500,292.5469875,490,0,1
ADMIN-UCSF-,2017-04-26 17:12:45+00:00,2017-04-26 17:29:23+00:00,,Left,2,DG-01-PA-019,500,317.7090287,480,0,1
ADMIN-UCSF-,2017-04-26 17:12:45+00:00,2017-04-26 17:29:23+00:00,,Right,2,DG-01-PA-019,500,295.9629893,480,0,1
ADMIN-UCSF-,2017-04-26 17:12:45+00:00,2017-04-26 17:29:23+00:00,,Left,3,DG-01-PA-019,500,319.7849989,460,0,1
ADMIN-UCSF-,2017-04-26 17:12:45+00:00,2017-04-26 17:29:23+00:00,,Right,3,DG-01-PA-019,500,307.1830273,460,0,1
ADMIN-UCSF-,2017-04-26 17:12:45+00:00,2017-04-26 17:29:23+00:00,,Left,4,DG-01-PA-019,500,307.9150319,420,0,1
ADMIN-UCSF-,2017-04-26 17:12:45+00:00,2017-04-26 17:29:23+00:00,,Right,4,DG-01-PA-019,500,316.4489865,420,0,1
ADMIN-UCSF-,2017-04-26 17:12:45+00:00,2017-04-26 17:29:23+00:00,,Left,5,DG-01-PA-019,500,304.2580485,340,0,1
ADMIN-UCSF-,2017-04-26 17:12:45+00:00,2017-04-26 17:29:23+00:00,,Right,5,DG-01-PA-019,500,307.9259992,340,0,1
ADMIN-UCSF-,2017-04-26 17:12:45+00:00,2017-04-26 17:29:23+00:00,,Left,6,DG-01-PA-019,500,323.7810135,180,1,0
ADMIN-UCSF-,2017-04-26 17:12:45+00:00,2017-04-26 17:29:23+00:00,,Right,6,DG-01-PA-019,500,307.1239591,180,1,0
ADMIN-UCSF-,2017-04-26 17:12:45+00:00,2017-04-26 17:29:23+00:00,,Left,7,DG-01-PA-019,500,293.0259705,220,1,0
ADMIN-UCSF-,2017-04-26 17:12:45+00:00,2017-04-26 17:29:23+00:00,,Right,7,DG-01-PA-019,500,294.6590185,220,1,0
ADMIN-UCSF-,2017-04-26 17:12:45+00:00,2017-04-26 17:29:23+00:00,,Left,8,DG-01-PA-019,500,293.7999964,260,1,0
ADMIN-UCSF-,2017-04-26 17:12:45+00:00,2017-04-26 17:29:23+00:00,,Right,8,DG-01-PA-019,500,308.6889982,260,1,0
ADMIN-UCSF-,2017-04-26 17:12:45+00:00,2017-04-26 17:29:23+00:00,,Left,9,DG-01-PA-019,500,293.3589816,340,0,1
ADMIN-UCSF-,2017-04-26 17:12:45+00:00,2017-04-26 17:29:23+00:00,,Right,9,DG-01-PA-019,500,304.479003,340,0,1
ADMIN-UCSF-,2017-04-26 17:12:45+00:00,2017-04-26 17:29:23+00:00,,Left,10,DG-01-PA-019,500,322.723031,330,0,1
ADMIN-UCSF-,2017-04-26 17:12:45+00:00,2017-04-26 17:29:23+00:00,,Right,10,DG-01-PA-019,500,330.9839964,330,1,0
ADMIN-UCSF-,2017-04-26 17:12:45+00:00,2017-04-26 17:29:23+00:00,,Left,11,DG-01-PA-019,500,274.4010091,320,0,1
ADMIN-UCSF-,2017-04-26 17:12:45+00:00,2017-04-26 17:29:23+00:00,,Right,11,DG-01-PA-019,500,313.4160042,370,0,1
ADMIN-UCSF-,2017-04-26 17:12:45+00:00,2017-04-26 17:29:23+00:00,,Left,12,DG-01-PA-019,500,500,300,1,0
ADMIN-UCSF-,2017-04-26 17:12:45+00:00,2017-04-26 17:29:23+00:00,,Right,12,DG-01-PA-019,500,340.7070041,360,0,1
ADMIN-UCSF-,2017-04-26 17:12:45+00:00,2017-04-26 17:29:23+00:00,,Left,13,DG-01-PA-019,500,285.9410048,340,0,1
ADMIN-UCSF-,2017-04-26 17:12:45+00:00,2017-04-26 17:29:23+00:00,,Right,13,DG-01-PA-019,500,301.560998,350,0,1
ADMIN-UCSF-,2017-04-26 17:12:45+00:00,2017-04-26 17:29:23+00:00,,Left,14,DG-01-PA-019,500,278.9779902,330,0,1
ADMIN-UCSF-,2017-04-26 17:12:45+00:00,2017-04-26 17:29:23+00:00,,Right,14,DG-01-PA-019,500,305.3970337,330,0,1
ADMIN-UCSF-,2017-04-26 17:12:45+00:00,2017-04-26 17:29:23+00:00,,Left,15,DG-01-PA-019,500,294.1480279,320,0,1
ADMIN-UCSF-,2017-04-26 17:12:45+00:00,2017-04-26 17:29:23+00:00,,Right,15,DG-01-PA-019,500,339.9860263,290,1,0
ADMIN-UCSF-,2017-04-26 17:12:45+00:00,2017-04-26 17:29:23+00:00,,Left,16,DG-01-PA-019,500,291.5279865,300,0,1
ADMIN-UCSF-,2017-04-26 17:12:45+00:00,2017-04-26 17:29:23+00:00,,Right,16,DG-01-PA-019,500,304.1030169,330,0,1
ADMIN-UCSF-,2017-04-26 17:12:45+00:00,2017-04-26 17:29:23+00:00,,Left,17,DG-01-PA-019,500,500,260,1,0
ADMIN-UCSF-,2017-04-26 17:12:45+00:00,2017-04-26 17:29:23+00:00,,Right,17,DG-01-PA-019,500,335.92695,320,1,0
ADMIN-UCSF-,2017-04-26 17:12:45+00:00,2017-04-26 17:29:23+00:00,,Left,18,DG-01-PA-019,500,500,300,1,0
ADMIN-UCSF-,2017-04-26 17:12:45+00:00,2017-04-26 17:29:23+00:00,,Right,18,DG-01-PA-019,500,334.5359564,360,0,1
ADMIN-UCSF-,2017-04-26 17:12:45+00:00,2017-04-26 17:29:23+00:00,,Left,19,DG-01-PA-019,500,500,340,1,0
ADMIN-UCSF-,2017-04-26 17:12:45+00:00,2017-04-26 17:29:23+00:00,,Right,19,DG-01-PA-019,500,315.9859776,350,0,1
ADMIN-UCSF-,2017-04-26 00:41:15+00:00,2017-04-26 17:11:35+00:00,,Left,0,DG-02-ND-024,500,335.8030319,500,0,1
ADMIN-UCSF-,2017-04-26 00:41:15+00:00,2017-04-26 17:11:35+00:00,,Right,0,DG-02-ND-024,500,500,500,0,0
ADMIN-UCSF-,2017-04-26 00:41:15+00:00,2017-04-26 17:11:35+00:00,,Left,1,DG-02-ND-024,500,351.9589901,490,0,1
ADMIN-UCSF-,2017-04-26 00:41:15+00:00,2017-04-26 17:11:35+00:00,,Right,1,DG-02-ND-024,,,,,0
ADMIN-UCSF-,2017-04-26 00:41:15+00:00,2017-04-26 17:11:35+00:00,,Left,2,DG-02-ND-024,500,277.9349685,480,0,1
ADMIN-UCSF-,2017-04-26 00:41:15+00:00,2017-04-26 17:11:35+00:00,,Right,2,DG-02-ND-024,540,320.6970096,540,0,1
ADMIN-UCSF-,2017-04-26 00:41:15+00:00,2017-04-26 17:11:35+00:00,,Left,3,DG-02-ND-024,500,265.9400105,460,0,1
ADMIN-UCSF-,2017-04-26 00:41:15+00:00,2017-04-26 17:11:35+00:00,,Right,3,DG-02-ND-024,540,267.6770091,530,0,1
ADMIN-UCSF-,2017-04-26 00:41:15+00:00,2017-04-26 17:11:35+00:00,,Left,4,DG-02-ND-024,500,254.208982,420,0,1
ADMIN-UCSF-,2017-04-26 00:41:15+00:00,2017-04-26 17:11:35+00:00,,Right,4,DG-02-ND-024,540,190.3620362,520,0,1
ADMIN-UCSF-,2017-04-26 00:41:15+00:00,2017-04-26 17:11:35+00:00,,Left,5,DG-02-ND-024,500,204.9490213,340,0,1
ADMIN-UCSF-,2017-04-26 00:41:15+00:00,2017-04-26 17:11:35+00:00,,Right,5,DG-02-ND-024,,,,,0
ADMIN-UCSF-,2017-04-26 00:41:15+00:00,2017-04-26 17:11:35+00:00,,Left,6,DG-02-ND-024,,,,,0
ADMIN-UCSF-,2017-04-26 00:41:15+00:00,2017-04-26 17:11:35+00:00,,Right,6,DG-02-ND-024,540,540,500,1,0
ADMIN-UCSF-,2017-04-26 00:41:15+00:00,2017-04-26 17:11:35+00:00,,Left,7,DG-02-ND-024,500,500,180,1,0
ADMIN-UCSF-,2017-04-26 00:41:15+00:00,2017-04-26 17:11:35+00:00,,Right,7,DG-02-ND-024,,,,,0
ADMIN-UCSF-,2017-04-26 00:41:15+00:00,2017-04-26 17:11:35+00:00,,Left,8,DG-02-ND-024,500,291.0900116,220,1,0
ADMIN-UCSF-,2017-04-26 00:41:15+00:00,2017-04-26 17:11:35+00:00,,Right,8,DG-02-ND-024,540,540,540,0,0
ADMIN-UCSF-,2017-04-26 00:41:15+00:00,2017-04-26 17:11:35+00:00,,Left,9,DG-02-ND-024,,,,,0
ADMIN-UCSF-,2017-04-26 00:41:15+00:00,2017-04-26 17:11:35+00:00,,Right,9,DG-02-ND-024,580,362.1090055,580,0,1
ADMIN-UCSF-,2017-04-26 00:41:15+00:00,2017-04-26 17:11:35+00:00,,Left,10,DG-02-ND-024,500,500,260,1,0
ADMIN-UCSF-,2017-04-26 00:41:15+00:00,2017-04-26 17:11:35+00:00,,Right,10,DG-02-ND-024,,,,,0
ADMIN-UCSF-,2017-04-26 00:41:15+00:00,2017-04-26 17:11:35+00:00,,Left,11,DG-02-ND-024,500,294.7859764,340,0,1
ADMIN-UCSF-,2017-04-26 00:41:15+00:00,2017-04-26 17:11:35+00:00,,Right,11,DG-02-ND-024,580,580,570,1,0
ADMIN-UCSF-,2017-04-26 00:41:15+00:00,2017-04-26 17:11:35+00:00,,Left,12,DG-02-ND-024,500,275.3419876,330,0,1
ADMIN-UCSF-,2017-04-26 00:41:15+00:00,2017-04-26 17:11:35+00:00,,Right,12,DG-02-ND-024,610,551.3679981,610,0,1
ADMIN-UCSF-,2017-04-26 00:41:15+00:00,2017-04-26 17:11:35+00:00,,Left,13,DG-02-ND-024,500,284.5970392,320,0,1
ADMIN-UCSF-,2017-04-26 00:41:15+00:00,2017-04-26 17:11:35+00:00,,Right,13,DG-02-ND-024,610,329.4150233,600,0,1
ADMIN-UCSF-,2017-04-26 00:41:15+00:00,2017-04-26 17:11:35+00:00,,Left,14,DG-02-ND-024,500,251.3250113,300,0,1
ADMIN-UCSF-,2017-04-26 00:41:15+00:00,2017-04-26 17:11:35+00:00,,Right,14,DG-02-ND-024,610,330.606997,590,0,1
ADMIN-UCSF-,2017-04-26 00:41:15+00:00,2017-04-26 17:11:35+00:00,,Left,15,DG-02-ND-024,500,227.3170352,260,0,1
ADMIN-UCSF-,2017-04-26 00:41:15+00:00,2017-04-26 17:11:35+00:00,,Right,15,DG-02-ND-024,610,277.2179842,570,0,1
ADMIN-UCSF-,2017-04-26 00:41:15+00:00,2017-04-26 17:11:35+00:00,,Left,16,DG-02-ND-024,500,267.7419782,180,1,0
ADMIN-UCSF-,2017-04-26 00:41:15+00:00,2017-04-26 17:11:35+00:00,,Right,16,DG-02-ND-024,610,322.9680061,530,0,1
ADMIN-UCSF-,2017-04-26 00:41:15+00:00,2017-04-26 17:11:35+00:00,,Left,17,DG-02-ND-024,,,,,0
ADMIN-UCSF-,2017-04-26 00:41:15+00:00,2017-04-26 17:11:35+00:00,,Right,17,DG-02-ND-024,610,318.1819916,450,0,1
ADMIN-UCSF-,2017-04-26 00:41:15+00:00,2017-04-26 17:11:35+00:00,,Left,18,DG-02-ND-024,500,500,220,1,0
ADMIN-UCSF-,2017-04-26 00:41:15+00:00,2017-04-26 17:11:35+00:00,,Right,18,DG-02-ND-024,610,261.8970275,290,0,1
ADMIN-UCSF-,2017-04-26 00:41:15+00:00,2017-04-26 17:11:35+00:00,,Left,19,DG-02-ND-024,500,391.5039897,260,1,0
ADMIN-UCSF-,2017-04-26 00:41:15+00:00,2017-04-26 17:11:35+00:00,,Right,19,DG-02-ND-024,610,388.1469965,150,1,0
ADMIN-UCSF-,2017-04-26 16:28:03+00:00,2017-04-26 16:51:42+00:00,,Left,0,DG-03-KA-016-2,500,500,500,0,0
ADMIN-UCSF-,2017-04-26 16:28:03+00:00,2017-04-26 16:51:42+00:00,,Right,0,DG-03-KA-016-2,500,500,500,0,0
ADMIN-UCSF-,2017-04-26 16:28:03+00:00,2017-04-26 16:51:42+00:00,,Left,1,DG-03-KA-016-2,,,,,0
ADMIN-UCSF-,2017-04-26 16:28:03+00:00,2017-04-26 16:51:42+00:00,,Right,1,DG-03-KA-016-2,,,,,0
ADMIN-UCSF-,2017-04-26 16:28:03+00:00,2017-04-26 16:51:42+00:00,,Left,2,DG-03-KA-016-2,540,343.8339829,540,0,1
ADMIN-UCSF-,2017-04-26 16:28:03+00:00,2017-04-26 16:51:42+00:00,,Right,2,DG-03-KA-016-2,540,462.8399611,540,0,1
ADMIN-UCSF-,2017-04-26 16:28:03+00:00,2017-04-26 16:51:42+00:00,,Left,3,DG-03-KA-016-2,540,410.0809693,530,0,1
ADMIN-UCSF-,2017-04-26 16:28:03+00:00,2017-04-26 16:51:42+00:00,,Right,3,DG-03-KA-016-2,540,460.062027,530,0,1
ADMIN-UCSF-,2017-04-26 16:28:03+00:00,2017-04-26 16:51:42+00:00,,Left,4,DG-03-KA-016-2,540,300.5859852,520,0,1
ADMIN-UCSF-,2017-04-26 16:28:03+00:00,2017-04-26 16:51:42+00:00,,Right,4,DG-03-KA-016-2,540,345.3170061,520,0,1
ADMIN-UCSF-,2017-04-26 16:28:03+00:00,2017-04-26 16:51:42+00:00,,Left,5,DG-03-KA-016-2,540,332.8639865,500,0,1
ADMIN-UCSF-,2017-04-26 16:28:03+00:00,2017-04-26 16:51:42+00:00,,Right,5,DG-03-KA-016-2,540,383.9210272,500,0,1
ADMIN-UCSF-,2017-04-26 16:28:03+00:00,2017-04-26 16:51:42+00:00,,Left,6,DG-03-KA-016-2,540,311.0440373,460,0,1
ADMIN-UCSF-,2017-04-26 16:28:03+00:00,2017-04-26 16:51:42+00:00,,Right,6,DG-03-KA-016-2,540,488.795042,460,1,0
ADMIN-UCSF-,2017-04-26 16:28:03+00:00,2017-04-26 16:51:42+00:00,,Left,7,DG-03-KA-016-2,540,358.4399819,380,0,1
ADMIN-UCSF-,2017-04-26 16:28:03+00:00,2017-04-26 16:51:42+00:00,,Right,7,DG-03-KA-016-2,540,407.2260261,500,0,1
ADMIN-UCSF-,2017-04-26 16:28:03+00:00,2017-04-26 16:51:42+00:00,,Left,8,DG-03-KA-016-2,540,293.2770252,220,1,0
ADMIN-UCSF-,2017-04-26 16:28:03+00:00,2017-04-26 16:51:42+00:00,,Right,8,DG-03-KA-016-2,540,491.6689992,490,1,0
ADMIN-UCSF-,2017-04-26 16:28:03+00:00,2017-04-26 16:51:42+00:00,,Left,9,DG-03-KA-016-2,540,313.5650158,260,1,0
ADMIN-UCSF-,2017-04-26 16:28:03+00:00,2017-04-26 16:51:42+00:00,,Right,9,DG-03-KA-016-2,540,540,530,1,0
ADMIN-UCSF-,2017-04-26 16:28:03+00:00,2017-04-26 16:51:42+00:00,,Left,10,DG-03-KA-016-2,540,365.3510213,300,1,0
ADMIN-UCSF-,2017-04-26 16:28:03+00:00,2017-04-26 16:51:42+00:00,,Right,10,DG-03-KA-016-2,,,,,0
ADMIN-UCSF-,2017-04-26 16:28:03+00:00,2017-04-26 16:51:42+00:00,,Left,11,DG-03-KA-016-2,540,327.6439905,380,0,1
ADMIN-UCSF-,2017-04-26 16:28:03+00:00,2017-04-26 16:51:42+00:00,,Right,11,DG-03-KA-016-2,570,422.5239754,570,0,1
ADMIN-UCSF-,2017-04-26 16:28:03+00:00,2017-04-26 16:51:42+00:00,,Left,12,DG-03-KA-016-2,540,342.805028,370,0,1
