Trial ID, Session ID, User ID, Question ID, Question Text, Question Type, User Answer, Correct Answer, Response Time, Button Response 1, Button Response 2, Button Response 3, Button Response 4, Button Response Submit, Trial Onset, Feedback Onset, Current Date, Current Year, Current Time, Current Time MS, Semester, Grade, Age, Handedness, Gender, SEAGroup, iPad Number, Math Recall Array, Math Verification Array, Math Recall Orientation
0, 45ede1d54690874223a33cdcad56235f, ADMIN-UCSF-la120, 0, 5 + 4 = 21, Arithmetic Verification, False, false, 2150.0, None, None, None, None, None, 0.0, 2151.0, May 14, 2018, 10:35:11 AM, 38111000, Spring, Third, 10, Right, Male, Group A, 87, None, 2b, None
1, 45ede1d54690874223a33cdcad56235f, ADMIN-UCSF-la120, 1, 2 + 6 = 8, Arithmetic Verification, True, true, 1929.0, None, None, None, None, None, 2903.0, 4834.0, May 14, 2018, 10:35:13 AM, 38113000, Spring, Third, 10, Right, Male, Group A, 87, None, 2b, None
2, 45ede1d54690874223a33cdcad56235f, ADMIN-UCSF-la120, 2, 6 + 2 = 13, Arithmetic Verification, No Answer, false, 4002.0, None, None, None, None, None, 5586.0, 9589.0, May 14, 2018, 10:35:18 AM, 38118000, Spring, Third, 10, Right, Male, Group A, 87, None, 2b, None
3, 45ede1d54690874223a33cdcad56235f, ADMIN-UCSF-la120, 3, 3 + 5 = 15, Arithmetic Verification, False, false, 3526.0, None, None, None, None, None, 10340.0, 13867.0, May 14, 2018, 10:35:22 AM, 38122000, Spring, Third, 10, Right, Male, Group A, 87, None, 2b, None
4, 45ede1d54690874223a33cdcad56235f, ADMIN-UCSF-la120, 4, 2 + 4 = 10, Arithmetic Verification, False, false, 2597.0, None, None, None, None, None, 14619.0, 17217.0, May 14, 2018, 10:35:26 AM, 38126000, Spring, Third, 10, Right, Male, Group A, 87, None, 2b, None
5, 45ede1d54690874223a33cdcad56235f, ADMIN-UCSF-la120, 5, 5 + 6 = 11, Arithmetic Verification, True, true, 2547.0, None, None, None, None, None, 17969.0, 20518.0, May 14, 2018, 10:35:29 AM, 38129000, Spring, Third, 10, Right, Male, Group A, 87, None, 2b, None
6, 45ede1d54690874223a33cdcad56235f, ADMIN-UCSF-la120, 6, 4 + 2 = 8, Arithmetic Verification, False, false, 3082.0, None, None, None, None, None, 21270.0, 24353.0, May 14, 2018, 10:35:33 AM, 38133000, Spring, Third, 10, Right, Male, Group A, 87, None, 2b, None
7, 45ede1d54690874223a33cdcad56235f, ADMIN-UCSF-la120, 7, 2 + 3 = 5, Arithmetic Verification, True, true, 2963.0, None, None, None, None, None, 25105.0, 28068.0, May 14, 2018, 10:35:37 AM, 38137000, Spring, Third, 10, Right, Male, Group A, 87, None, 2b, None
8, 45ede1d54690874223a33cdcad56235f, ADMIN-UCSF-la120, 8, 2 + 5 = 7, Arithmetic Verification, True, true, 3189.0, None, None, None, None, None, 28820.0, 32011.0, May 14, 2018, 10:35:41 AM, 38141000, Spring, Third, 10, Right, Male, Group A, 87, None, 2b, None
9, 45ede1d54690874223a33cdcad56235f, ADMIN-UCSF-la120, 9, 2 + 6 = 12, Arithmetic Verification, False, false, 3531.0, None, None, None, None, None, 32762.0, 36295.0, May 14, 2018, 10:35:45 AM, 38145000, Spring, Third, 10, Right, Male, Group A, 87, None, 2b, None
10, 45ede1d54690874223a33cdcad56235f, ADMIN-UCSF-la120, 10, 4 + 3 = 7, Arithmetic Verification, True, true, 3207.0, None, None, None, None, None, 37046.0, 40254.0, May 14, 2018, 10:35:49 AM, 38149000, Spring, Third, 10, Right, Male, Group A, 87, None, 2b, None
11, 45ede1d54690874223a33cdcad56235f, ADMIN-UCSF-la120, 11, 3 + 6 = 9, Arithmetic Verification, True, true, 2112.0, None, None, None, None, None, 41006.0, 43119.0, May 14, 2018, 10:35:52 AM, 38152000, Spring, Third, 10, Right, Male, Group A, 87, None, 2b, None
12, 45ede1d54690874223a33cdcad56235f, ADMIN-UCSF-la120, 12, 5 + 3 = 8, Arithmetic Verification, True, true, 1514.0, None, None, None, None, None, 43871.0, 45387.0, May 14, 2018, 10:35:54 AM, 38154000, Spring, Third, 10, Right, Male, Group A, 87, None, 2b, None
13, 45ede1d54690874223a33cdcad56235f, ADMIN-UCSF-la120, 13, 5 + 3 = 14, Arithmetic Verification, False, false, 1780.0, None, None, None, None, None, 46138.0, 47920.0, May 14, 2018, 10:35:57 AM, 38157000, Spring, Third, 10, Right, Male, Group A, 87, None, 2b, None
14, 45ede1d54690874223a33cdcad56235f, ADMIN-UCSF-la120, 14, 5 + 4 = 20, Arithmetic Verification, True, false, 1781.0, None, None, None, None, None, 48672.0, 50454.0, May 14, 2018, 10:35:59 AM, 38159000, Spring, Third, 10, Right, Male, Group A, 87, None, 2b, None
15, 45ede1d54690874223a33cdcad56235f, ADMIN-UCSF-la120, 15, 4 + 5 = 9, Arithmetic Verification, False, true, 2032.0, None, None, None, None, None, 51206.0, 53239.0, May 14, 2018, 10:36:02 AM, 38162000, Spring, Third, 10, Right, Male, Group A, 87, None, 2b, None
16, 45ede1d54690874223a33cdcad56235f, ADMIN-UCSF-la120, 16, 5 + 6 = 30, Arithmetic Verification, True, false, 3312.0, None, None, None, None, None, 53991.0, 57304.0, May 14, 2018, 10:36:06 AM, 38166000, Spring, Third, 10, Right, Male, Group A, 87, None, 2b, None
17, 45ede1d54690874223a33cdcad56235f, ADMIN-UCSF-la120, 17, 5 + 6 = 28, Arithmetic Verification, False, false, 2763.0, None, None, None, None, None, 58056.0, 60821.0, May 14, 2018, 10:36:09 AM, 38169000, Spring, Third, 10, Right, Male, Group A, 87, None, 2b, None
18, 45ede1d54690874223a33cdcad56235f, ADMIN-UCSF-la120, 18, 4 + 2 = 6, Arithmetic Verification, True, true, 3230.0, None, None, None, None, None, 61573.0, 64805.0, May 14, 2018, 10:36:13 AM, 38173000, Spring, Third, 10, Right, Male, Group A, 87, None, 2b, None
19, 45ede1d54690874223a33cdcad56235f, ADMIN-UCSF-la120, 19, 6 + 4 = 10, Arithmetic Verification, True, true, 1948.0, None, None, None, None, None, 65556.0, 67506.0, May 14, 2018, 10:36:16 AM, 38176000, Spring, Third, 10, Right, Male, Group A, 87, None, 2b, None
20, 45ede1d54690874223a33cdcad56235f, ADMIN-UCSF-la120, 20, 2 x 6 = 9, Arithmetic Verification, False, false, 6830.0, None, None, None, None, None, 68258.0, 75089.0, May 14, 2018, 10:36:24 AM, 38184000, Spring, Third, 10, Right, Male, Group A, 87, None, 2b, None
21, 45ede1d54690874223a33cdcad56235f, ADMIN-UCSF-la120, 21, 3 x 2 = 6, Arithmetic Verification, True, true, 3948.0, None, None, None, None, None, 75840.0, 79789.0, May 14, 2018, 10:36:28 AM, 38188000, Spring, Third, 10, Right, Male, Group A, 87, None, 2b, None
22, 45ede1d54690874223a33cdcad56235f, ADMIN-UCSF-la120, 22, 4 x 6 = 24, Arithmetic Verification, True, true, 3116.0, None, None, None, None, None, 80541.0, 83659.0, May 14, 2018, 10:36:32 AM, 38192000, Spring, Third, 10, Right, Male, Group A, 87, None, 2b, None
23, 45ede1d54690874223a33cdcad56235f, ADMIN-UCSF-la120, 23, 3 x 6 = 18, Arithmetic Verification, True, true, 2547.0, None, None, None, None, None, 84410.0, 86958.0, May 14, 2018, 10:36:36 AM, 38196000, Spring, Third, 10, Right, Male, Group A, 87, None, 2b, None
24, 45ede1d54690874223a33cdcad56235f, ADMIN-UCSF-la120, 24, 5 x 4 = 20, Arithmetic Verification, True, true, 1829.0, None, None, None, None, None, 87709.0, 89540.0, May 14, 2018, 10:36:38 AM, 38198000, Spring, Third, 10, Right, Male, Group A, 87, None, 2b, None
25, 45ede1d54690874223a33cdcad56235f, ADMIN-UCSF-la120, 25, 5 x 6 = 11, Arithmetic Verification, False, false, 1649.0, None, None, None, None, None, 90292.0, 91943.0, May 14, 2018, 10:36:41 AM, 38201000, Spring, Third, 10, Right, Male, Group A, 87, None, 2b, None
26, 45ede1d54690874223a33cdcad56235f, ADMIN-UCSF-la120, 26, 2 x 4 = 6, Arithmetic Verification, False, false, 3012.0, None, None, None, None, None, 92695.0, 95707.0, May 14, 2018, 10:36:44 AM, 38204000, Spring, Third, 10, Right, Male, Group A, 87, None, 2b, None
27, 45ede1d54690874223a33cdcad56235f, ADMIN-UCSF-la120, 27, 5 x 6 = 30, Arithmetic Verification, True, true, 1963.0, None, None, None, None, None, 96459.0, 98424.0, May 14, 2018, 10:36:47 AM, 38207000, Spring, Third, 10, Right, Male, Group A, 87, None, 2b, None
28, 45ede1d54690874223a33cdcad56235f, ADMIN-UCSF-la120, 28, 4 x 5 = 9, Arithmetic Verification, False, false, 3816.0, None, None, None, None, None, 99176.0, 102993.0, May 14, 2018, 10:36:52 AM, 38212000, Spring, Third, 10, Right, Male, Group A, 87, None, 2b, None
29, 45ede1d54690874223a33cdcad56235f, ADMIN-UCSF-la120, 29, 5 x 3 = 7, Arithmetic Verification, False, false, 2579.0, None, None, None, None, None, 103745.0, 106325.0, May 14, 2018, 10:36:55 AM, 38215000, Spring, Third, 10, Right, Male, Group A, 87, None, 2b, None
30, 45ede1d54690874223a33cdcad56235f, ADMIN-UCSF-la120, 30, 5 x 4 = 8, Arithmetic Verification, True, false, 3283.0, None, None, None, None, None, 107076.0, 110360.0, May 14, 2018, 10:36:59 AM, 38219000, Spring, Third, 10, Right, Male, Group A, 87, None, 2b, None
31, 45ede1d54690874223a33cdcad56235f, ADMIN-UCSF-la120, 31, 2 x 5 = 10, Arithmetic Verification, True, true, 2555.0, None, None, None, None, None, 111112.0, 113668.0, May 14, 2018, 10:37:02 AM, 38222000, Spring, Third, 10, Right, Male, Group A, 87, None, 2b, None
32, 45ede1d54690874223a33cdcad56235f, ADMIN-UCSF-la120, 32, 4 x 2 = 8, Arithmetic Verification, True, true, 2322.0, None, None, None, None, None, 114419.0, 116742.0, May 14, 2018, 10:37:05 AM, 38225000, Spring, Third, 10, Right, Male, Group A, 87, None, 2b, None
33, 45ede1d54690874223a33cdcad56235f, ADMIN-UCSF-la120, 33, 3 x 5 = 8, Arithmetic Verification, False, false, 3048.0, None, None, None, None, None, 117494.0, 120543.0, May 14, 2018, 10:37:09 AM, 38229000, Spring, Third, 10, Right, Male, Group A, 87, None, 2b, None
34, 45ede1d54690874223a33cdcad56235f, ADMIN-UCSF-la120, 34, 6 x 2 = 12, Arithmetic Verification, True, true, 2697.0, None, None, None, None, None, 121295.0, 123994.0, May 14, 2018, 10:37:13 AM, 38233000, Spring, Third, 10, Right, Male, Group A, 87, None, 2b, None
35, 45ede1d54690874223a33cdcad56235f, ADMIN-UCSF-la120, 35, 2 x 4 = 7, Arithmetic Verification, False, false, 2330.0, None, None, None, None, None, 124746.0, 127077.0, May 14, 2018, 10:37:16 AM, 38236000, Spring, Third, 10, Right, Male, Group A, 87, None, 2b, None
36, 45ede1d54690874223a33cdcad56235f, ADMIN-UCSF-la120, 36, 6 x 2 = 8, Arithmetic Verification, True, false, 3597.0, None, None, None, None, None, 127828.0, 131427.0, May 14, 2018, 10:37:20 AM, 38240000, Spring, Third, 10, Right, Male, Group A, 87, None, 2b, None
37, 45ede1d54690874223a33cdcad56235f, ADMIN-UCSF-la120, 37, 3 x 4 = 12, Arithmetic Verification, True, true, 2448.0, None, None, None, None, None, 132179.0, 134628.0, May 14, 2018, 10:37:23 AM, 38243000, Spring, Third, 10, Right, Male, Group A, 87, None, 2b, None
38, 45ede1d54690874223a33cdcad56235f, ADMIN-UCSF-la120, 38, 5 x 6 = 13, Arithmetic Verification, False, false, 1963.0, None, None, None, None, None, 135380.0, 137344.0, May 14, 2018, 10:37:26 AM, 38246000, Spring, Third, 10, Right, Male, Group A, 87, None, 2b, None
39, 45ede1d54690874223a33cdcad56235f, ADMIN-UCSF-la120, 39, 3 x 5 = 15, Arithmetic Verification, True, true, 1680.0, None, None, None, None, None, 138096.0, 139778.0, May 14, 2018, 10:37:28 AM, 38248000, Spring, Third, 10, Right, Male, Group A, 87, None, 2b, None
40, 45ede1d54690874223a33cdcad56235f, ADMIN-UCSF-la120, 40, 5 + 4 = 9, Arithmetic Verification, True, true, 14415.0, None, None, None, None, None, 140529.0, 154946.0, May 14, 2018, 10:37:44 AM, 38264000, Spring, Third, 10, Right, Male, Group A, 87, None, 2b, None
41, 45ede1d54690874223a33cdcad56235f, ADMIN-UCSF-la120, 41, 3 + 6 = 18, Arithmetic Verification, True, false, 2466.0, None, None, None, None, None, 155697.0, 158164.0, May 14, 2018, 10:37:47 AM, 38267000, Spring, Third, 10, Right, Male, Group A, 87, None, 2b, None
42, 45ede1d54690874223a33cdcad56235f, ADMIN-UCSF-la120, 42, 3 + 5 = 8, Arithmetic Verification, True, true, 1796.0, None, None, None, None, None, 158916.0, 160713.0, May 14, 2018, 10:37:49 AM, 38269000, Spring, Third, 10, Right, Male, Group A, 87, None, 2b, None
43, 45ede1d54690874223a33cdcad56235f, ADMIN-UCSF-la120, 43, 6 + 3 = 9, Arithmetic Verification, True, true, 1479.0, None, None, None, None, None, 161465.0, 162945.0, May 14, 2018, 10:37:52 AM, 38272000, Spring, Third, 10, Right, Male, Group A, 87, None, 2b, None
44, 45ede1d54690874223a33cdcad56235f, ADMIN-UCSF-la120, 44, 3 + 2 = 4, Arithmetic Verification, False, false, 3499.0, None, None, None, None, None, 163697.0, 167197.0, May 14, 2018, 10:37:56 AM, 38276000, Spring, Third, 10, Right, Male, Group A, 87, None, 2b, None
45, 45ede1d54690874223a33cdcad56235f, ADMIN-UCSF-la120, 45, 2 x 3 = 7, Arithmetic Verification, False, false, 2880.0, None, None, None, None, None, 167949.0, 170831.0, May 14, 2018, 10:37:59 AM, 38279000, Spring, Third, 10, Right, Male, Group A, 87, None, 2b, None
46, 45ede1d54690874223a33cdcad56235f, ADMIN-UCSF-la120, 46, 6 x 5 = 30, Arithmetic Verification, True, true, 3669.0, None, None, None, None, None, 171582.0, 175253.0, May 14, 2018, 10:38:04 AM, 38284000, Spring, Third, 10, Right, Male, Group A, 87, None, 2b, None
47, 45ede1d54690874223a33cdcad56235f, ADMIN-UCSF-la120, 47, 3 + 4 = 7, Arithmetic Verification, True, true, 2610.0, None, None, None, None, None, 176005.0, 178616.0, May 14, 2018, 10:38:07 AM, 38287000, Spring, Third, 10, Right, Male, Group A, 87, None, 2b, None
48, 45ede1d54690874223a33cdcad56235f, ADMIN-UCSF-la120, 48, 5 x 2 = 10, Arithmetic Verification, True, true, 2764.0, None, None, None, None, None, 179368.0, 182133.0, May 14, 2018, 10:38:11 AM, 38291000, Spring, Third, 10, Right, Male, Group A, 87, None, 2b, None
49, 45ede1d54690874223a33cdcad56235f, ADMIN-UCSF-la120, 49, 6 + 4 = 26, Arithmetic Verification, False, false, 2529.0, None, None, None, None, None, 182884.0, 185415.0, May 14, 2018, 10:38:14 AM, 38294000, Spring, Third, 10, Right, Male, Group A, 87, None, 2b, None
50, 45ede1d54690874223a33cdcad56235f, ADMIN-UCSF-la120, 50, 6 x 4 = 8, Arithmetic Verification, False, false, 3665.0, None, None, None, None, None, 186167.0, 189833.0, May 14, 2018, 10:38:18 AM, 38298000, Spring, Third, 10, Right, Male, Group A, 87, None, 2b, None
51, 45ede1d54690874223a33cdcad56235f, ADMIN-UCSF-la120, 51, 3 + 2 = 5, Arithmetic Verification, True, true, 1582.0, None, None, None, None, None, 190585.0, 192168.0, May 14, 2018, 10:38:21 AM, 38301000, Spring, Third, 10, Right, Male, Group A, 87, None, 2b, None
52, 45ede1d54690874223a33cdcad56235f, ADMIN-UCSF-la120, 52, 4 x 3 = 6, Arithmetic Verification, True, false, 2646.0, None, None, None, None, None, 192920.0, 195567.0, May 14, 2018, 10:38:24 AM, 38304000, Spring, Third, 10, Right, Male, Group A, 87, None, 2b, None
53, 45ede1d54690874223a33cdcad56235f, ADMIN-UCSF-la120, 53, 2 x 5 = 5, Arithmetic Verification, False, false, 2181.0, None, None, None, None, None, 196319.0, 198502.0, May 14, 2018, 10:38:27 AM, 38307000, Spring, Third, 10, Right, Male, Group A, 87, None, 2b, None
54, 45ede1d54690874223a33cdcad56235f, ADMIN-UCSF-la120, 54, 6 x 4 = 10, Arithmetic Verification, False, false, 3230.0, None, None, None, None, None, 199254.0, 202485.0, May 14, 2018, 10:38:31 AM, 38311000, Spring, Third, 10, Right, Male, Group A, 87, None, 2b, None
55, 45ede1d54690874223a33cdcad56235f, ADMIN-UCSF-la120, 55, 2 + 4 = 6, Arithmetic Verification, True, true, 3562.0, None, None, None, None, None, 203236.0, 206800.0, May 14, 2018, 10:38:35 AM, 38315000, Spring, Third, 10, Right, Male, Group A, 87, None, 2b, None
56, 45ede1d54690874223a33cdcad56235f, ADMIN-UCSF-la120, 56, 2 + 3 = 6, Arithmetic Verification, False, false, 2499.0, None, None, None, None, None, 207552.0, 210054.0, May 14, 2018, 10:38:39 AM, 38319000, Spring, Third, 10, Right, Male, Group A, 87, None, 2b, None
57, 45ede1d54690874223a33cdcad56235f, ADMIN-UCSF-la120, 57, 2 x 4 = 8, Arithmetic Verification, True, true, 2660.0, None, None, None, None, None, 210806.0, 213467.0, May 14, 2018, 10:38:42 AM, 38322000, Spring, Third, 10, Right, Male, Group A, 87, None, 2b, None
58, 45ede1d54690874223a33cdcad56235f, ADMIN-UCSF-la120, 58, 4 + 3 = 11, Arithmetic Verification, False, false, 2331.0, None, None, None, None, None, 214219.0, 216551.0, May 14, 2018, 10:38:45 AM, 38325000, Spring, Third, 10, Right, Male, Group A, 87, None, 2b, None
59, 45ede1d54690874223a33cdcad56235f, ADMIN-UCSF-la120, 59, 6 x 3 = 18, Arithmetic Verification, True, true, 1446.0, None, None, None, None, None, 217302.0, 218750.0, May 14, 2018, 10:38:47 AM, 38327000, Spring, Third, 10, Right, Male, Group A, 87, None, 2b, None
60, 45ede1d54690874223a33cdcad56235f, ADMIN-UCSF-la120, 60, 3 x 4 = 7, Arithmetic Verification, False, false, 1101.0, None, None, None, None, None, 219502.0, 220604.0, May 14, 2018, 10:38:49 AM, 38329000, Spring, Third, 10, Right, Male, Group A, 87, None, 2b, None
61, 45ede1d54690874223a33cdcad56235f, ADMIN-UCSF-la120, 61, 5 + 2 = 10, Arithmetic Verification, True, false, 960.0, None, None, None, None, None, 221357.0, 222318.0, May 14, 2018, 10:38:51 AM, 38331000, Spring, Third, 10, Right, Male, Group A, 87, None, 2b, None
62, 45ede1d54690874223a33cdcad56235f, ADMIN-UCSF-la120, 62, 5 x 3 = 15, Arithmetic Verification, True, true, 832.0, None, None, None, None, None, 223070.0, 223904.0, May 14, 2018, 10:38:53 AM, 38333000, Spring, Third, 10, Right, Male, Group A, 87, None, 2b, None
63, 45ede1d54690874223a33cdcad56235f, ADMIN-UCSF-la120, 63, 4 + 3 = 12, Arithmetic Verification, False, false, 495.0, None, None, None, None, None, 224656.0, 225152.0, May 14, 2018, 10:38:54 AM, 38334000, Spring, Third, 10, Right, Male, Group A, 87, None, 2b, None
64, 45ede1d54690874223a33cdcad56235f, ADMIN-UCSF-la120, 64, 3 x 2 = 5, Arithmetic Verification, False, false, 614.0, None, None, None, None, None, 225904.0, 226519.0, May 14, 2018, 10:38:55 AM, 38335000, Spring, Third, 10, Right, Male, Group A, 87, None, 2b, None
65, 45ede1d54690874223a33cdcad56235f, ADMIN-UCSF-la120, 65, 2 x 3 = 6, Arithmetic Verification, True, true, 429.0, None, None, None, None, None, 227271.0, 227702.0, May 14, 2018, 10:38:56 AM, 38336000, Spring, Third, 10, Right, Male, Group A, 87, None, 2b, None
66, 45ede1d54690874223a33cdcad56235f, ADMIN-UCSF-la120, 66, 5 + 2 = 7, Arithmetic Verification, True, true, 630.0, None, None, None, None, None, 228454.0, 229085.0, May 14, 2018, 10:38:58 AM, 38338000, Spring, Third, 10, Right, Male, Group A, 87, None, 2b, None
67, 45ede1d54690874223a33cdcad56235f, ADMIN-UCSF-la120, 67, 4 + 6 = 24, Arithmetic Verification, False, false, 548.0, None, None, None, None, None, 229838.0, 230387.0, May 14, 2018, 10:38:59 AM, 38339000, Spring, Third, 10, Right, Male, Group A, 87, None, 2b, None
68, 45ede1d54690874223a33cdcad56235f, ADMIN-UCSF-la120, 68, 6 + 3 = 17, Arithmetic Verification, True, false, 563.0, None, None, None, None, None, 231138.0, 231702.0, May 14, 2018, 10:39:00 AM, 38340000, Spring, Third, 10, Right, Male, Group A, 87, None, 2b, None
69, 45ede1d54690874223a33cdcad56235f, ADMIN-UCSF-la120, 69, 5 x 2 = 7, Arithmetic Verification, True, false, 1413.0, None, None, None, None, None, 232454.0, 233869.0, May 14, 2018, 10:39:02 AM, 38342000, Spring, Third, 10, Right, Male, Group A, 87, None, 2b, None
70, 45ede1d54690874223a33cdcad56235f, ADMIN-UCSF-la120, 70, 6 x 4 = 24, Arithmetic Verification, False, true, 864.0, None, None, None, None, None, 234621.0, 235486.0, May 14, 2018, 10:39:04 AM, 38344000, Spring, Third, 10, Right, Male, Group A, 87, None, 2b, None
71, 45ede1d54690874223a33cdcad56235f, ADMIN-UCSF-la120, 71, 6 + 2 = 8, Arithmetic Verification, True, true, 564.0, None, None, None, None, None, 236238.0, 236804.0, May 14, 2018, 10:39:05 AM, 38345000, Spring, Third, 10, Right, Male, Group A, 87, None, 2b, None
72, 45ede1d54690874223a33cdcad56235f, ADMIN-UCSF-la120, 72, 6 x 3 = 10, Arithmetic Verification, False, false, 647.0, None, None, None, None, None, 237556.0, 238204.0, May 14, 2018, 10:39:07 AM, 38347000, Spring, Third, 10, Right, Male, Group A, 87, None, 2b, None
73, 45ede1d54690874223a33cdcad56235f, ADMIN-UCSF-la120, 73, 4 x 3 = 12, Arithmetic Verification, True, true, 579.0, None, None, None, None, None, 238956.0, 239536.0, May 14, 2018, 10:39:08 AM, 38348000, Spring, Third, 10, Right, Male, Group A, 87, None, 2b, None
74, 45ede1d54690874223a33cdcad56235f, ADMIN-UCSF-la120, 74, 2 x 6 = 12, Arithmetic Verification, False, true, 554.0, None, None, None, None, None, 240288.0, 240844.0, May 14, 2018, 10:39:09 AM, 38349000, Spring, Third, 10, Right, Male, Group A, 87, None, 2b, None
75, 45ede1d54690874223a33cdcad56235f, ADMIN-UCSF-la120, 75, 6 + 5 = 11, Arithmetic Verification, True, true, 572.0, None, None, None, None, None, 241596.0, 242170.0, May 14, 2018, 10:39:11 AM, 38351000, Spring, Third, 10, Right, Male, Group A, 87, None, 2b, None
76, 45ede1d54690874223a33cdcad56235f, ADMIN-UCSF-la120, 76, 4 + 6 = 10, Arithmetic Verification, False, true, 580.0, None, None, None, None, None, 242922.0, 243503.0, May 14, 2018, 10:39:12 AM, 38352000, Spring, Third, 10, Right, Male, Group A, 87, None, 2b, None
77, 45ede1d54690874223a33cdcad56235f, ADMIN-UCSF-la120, 77, 3 x 6 = 9, Arithmetic Verification, True, false, 449.0, None, None, None, None, None, 244255.0, 244705.0, May 14, 2018, 10:39:13 AM, 38353000, Spring, Third, 10, Right, Male, Group A, 87, None, 2b, None
78, 45ede1d54690874223a33cdcad56235f, ADMIN-UCSF-la120, 78, 4 x 5 = 20, Arithmetic Verification, False, true, 612.0, None, None, None, None, None, 245457.0, 246070.0, May 14, 2018, 10:39:15 AM, 38355000, Spring, Third, 10, Right, Male, Group A, 87, None, 2b, None
79, 45ede1d54690874223a33cdcad56235f, ADMIN-UCSF-la120, 79, 5 + 2 = 11, Arithmetic Verification, True, false, 1797.0, None, None, None, None, None, 246822.0, 248620.0, May 14, 2018, 10:39:17 AM, 38357000, Spring, Third, 10, Right, Male, Group A, 87, None, 2b, None
79, 45ede1d54690874223a33cdcad56235f, ADMIN-UCSF-la120, 0, 8 + 5, Math Recall, No Answer, 13, 10002.0, None, None, None, None, None, 0.0, 10002.0, May 14, 2018, 10:41:44 AM, 38504000, Spring, Third, 10, Right, Male, Group A, 87, Two, None, Horizontal
80, 45ede1d54690874223a33cdcad56235f, ADMIN-UCSF-la120, 1, 3 + 4, Math Recall, 7, 7, 1961.0, 12734.0, None, None, None, 12968.0, 11005.0, 12968.0, May 14, 2018, 10:41:47 AM, 38507000, Spring, Third, 10, Right, Male, Group A, 87, Two, None, Horizontal
81, 45ede1d54690874223a33cdcad56235f, ADMIN-UCSF-la120, 2, 83 + 6, Math Recall, 89, 89, 3263.0, 16451.0, 16917.0, None, None, 17234.0, 13970.0, 17234.0, May 14, 2018, 10:41:51 AM, 38511000, Spring, Third, 10, Right, Male, Group A, 87, Two, None, Horizontal
82, 45ede1d54690874223a33cdcad56235f, ADMIN-UCSF-la120, 3, 54 + 8, Math Recall, 62, 62, 6764.0, 24468.0, 24751.0, None, None, 25002.0, 18236.0, 25001.0, May 14, 2018, 10:41:59 AM, 38519000, Spring, Third, 10, Right, Male, Group A, 87, Two, None, Horizontal
83, 45ede1d54690874223a33cdcad56235f, ADMIN-UCSF-la120, 4, 36 + 58, Math Recall, 84, 94, 8798.0, 33858.0, 34585.0, None, None, 34804.0, 26003.0, 34803.0, May 14, 2018, 10:42:09 AM, 38529000, Spring, Third, 10, Right, Male, Group A, 87, Two, None, Horizontal
84, 45ede1d54690874223a33cdcad56235f, ADMIN-UCSF-la120, 5, 73 + 25, Math Recall, 9, 98, 10002.0, 42508.0, None, None, None, 45808.0, 35805.0, 45808.0, May 14, 2018, 10:42:20 AM, 38540000, Spring, Third, 10, Right, Male, Group A, 87, Two, None, Horizontal
85, 45ede1d54690874223a33cdcad56235f, ADMIN-UCSF-la120, 6, 6 + 2, Math Recall, 8, 8, 3092.0, 49428.0, None, None, None, 49904.0, 46810.0, 49903.0, May 14, 2018, 10:42:24 AM, 38544000, Spring, Third, 10, Right, Male, Group A, 87, Two, None, Vertical
86, 45ede1d54690874223a33cdcad56235f, ADMIN-UCSF-la120, 7, 7 + 8, Math Recall, 15, 15, 3864.0, 53520.0, 54304.0, None, None, 54771.0, 50905.0, 54771.0, May 14, 2018, 10:42:29 AM, 38549000, Spring, Third, 10, Right, Male, Group A, 87, Two, None, Vertical
87, 45ede1d54690874223a33cdcad56235f, ADMIN-UCSF-la120, 8, 32 + 7, Math Recall, 39, 39, 3997.0, 59237.0, 59521.0, None, None, 59771.0, 55773.0, 59771.0, May 14, 2018, 10:42:34 AM, 38554000, Spring, Third, 10, Right, Male, Group A, 87, Two, None, Vertical
88, 45ede1d54690874223a33cdcad56235f, ADMIN-UCSF-la120, 9, 49 + 5, Math Recall, 54, 54, 5864.0, 64888.0, 66372.0, None, None, 66638.0, 60773.0, 66638.0, May 14, 2018, 10:42:41 AM, 38561000, Spring, Third, 10, Right, Male, Group A, 87, Two, None, Vertical
89, 45ede1d54690874223a33cdcad56235f, ADMIN-UCSF-la120, 10, 69 + 27, Math Recall, No Answer, 96, 10001.0, None, None, None, None, None, 67639.0, 77642.0, May 14, 2018, 10:42:52 AM, 38572000, Spring, Third, 10, Right, Male, Group A, 87, Two, None, Vertical
90, 45ede1d54690874223a33cdcad56235f, ADMIN-UCSF-la120, 11, 44 + 32, Math Recall, 76, 76, 6029.0, 83691.0, 84372.0, None, None, 84674.0, 78643.0, 84674.0, May 14, 2018, 10:42:59 AM, 38579000, Spring, Third, 10, Right, Male, Group A, 87, Two, None, Vertical
91, 45ede1d54690874223a33cdcad56235f, ADMIN-UCSF-la120, 12, 13 - 7, Math Recall, 6, 6, 3646.0, 89075.0, None, None, None, 89324.0, 85676.0, 89324.0, May 14, 2018, 10:43:03 AM, 38583000, Spring, Third, 10, Right, Male, Group A, 87, Two, None, Horizontal
92, 45ede1d54690874223a33cdcad56235f, ADMIN-UCSF-la120, 13, 9 - 4, Math Recall, 5, 5, 3947.0, 94024.0, None, None, None, 94275.0, 90326.0, 94275.0, May 14, 2018, 10:43:08 AM, 38588000, Spring, Third, 10, Right, Male, Group A, 87, Two, None, Horizontal
93, 45ede1d54690874223a33cdcad56235f, ADMIN-UCSF-la120, 14, 63 - 5, Math Recall, 5, 58, 8613.0, 98959.0, None, None, None, 103891.0, 95276.0, 103891.0, May 14, 2018, 10:43:18 AM, 38598000, Spring, Third, 10, Right, Male, Group A, 87, Two, None, Horizontal
94, 45ede1d54690874223a33cdcad56235f, ADMIN-UCSF-la120, 15, 49 - 6, Math Recall, 43, 43, 5814.0, 109227.0, 110258.0, None, None, 110709.0, 104893.0, 110708.0, May 14, 2018, 10:43:25 AM, 38605000, Spring, Third, 10, Right, Male, Group A, 87, Two, None, Horizontal
95, 45ede1d54690874223a33cdcad56235f, ADMIN-UCSF-la120, 16, 68 - 35, Math Recall, 6, 33, 10005.0, 120443.0, None, None, None, 121717.0, 111710.0, 121717.0, May 14, 2018, 10:43:36 AM, 38616000, Spring, Third, 10, Right, Male, Group A, 87, Two, None, Horizontal
96, 45ede1d54690874223a33cdcad56235f, ADMIN-UCSF-la120, 17, 92 - 27, Math Recall, No Answer, 65, 10002.0, None, None, None, None, None, 122718.0, 132721.0, May 14, 2018, 10:43:47 AM, 38627000, Spring, Third, 10, Right, Male, Group A, 87, Two, None, Horizontal
97, 45ede1d54690874223a33cdcad56235f, ADMIN-UCSF-la120, 18, 16 - 9, Math Recall, 7, 7, 3653.0, 136877.0, None, None, None, 137378.0, 133724.0, 137378.0, May 14, 2018, 10:43:51 AM, 38631000, Spring, Third, 10, Right, Male, Group A, 87, Two, None, Vertical
98, 45ede1d54690874223a33cdcad56235f, ADMIN-UCSF-la120, 19, 8 - 2, Math Recall, 6, 6, 4662.0, 142729.0, None, None, None, 143045.0, 138381.0, 143045.0, May 14, 2018, 10:43:57 AM, 38637000, Spring, Third, 10, Right, Male, Group A, 87, Two, None, Vertical
99, 45ede1d54690874223a33cdcad56235f, ADMIN-UCSF-la120, 20, 32 - 7, Math Recall, 25, 25, 6447.0, 149180.0, 150279.0, None, None, 150495.0, 144046.0, 150495.0, May 14, 2018, 10:44:04 AM, 38644000, Spring, Third, 10, Right, Male, Group A, 87, Two, None, Vertical
100, 45ede1d54690874223a33cdcad56235f, ADMIN-UCSF-la120, 21, 98 - 4, Math Recall, 94, 94, 4414.0, 155434.0, 155679.0, None, None, 155912.0, 151497.0, 155912.0, May 14, 2018, 10:44:10 AM, 38650000, Spring, Third, 10, Right, Male, Group A, 87, Two, None, Vertical
101, 45ede1d54690874223a33cdcad56235f, ADMIN-UCSF-la120, 22, 86 - 23, Math Recall, 63, 63, 6814.0, 162396.0, 163530.0, None, None, 163730.0, 156914.0, 163730.0, May 14, 2018, 10:44:18 AM, 38658000, Spring, Third, 10, Right, Male, Group A, 87, Two, None, Vertical
102, 45ede1d54690874223a33cdcad56235f, ADMIN-UCSF-la120, 23, 74 - 49, Math Recall, No Answer, 25, 10001.0, None, None, None, None, None, 164732.0, 174736.0, May 14, 2018, 10:44:29 AM, 38669000, Spring, Third, 10, Right, Male, Group A, 87, Two, None, Vertical
102, 45ede1d54690874223a33cdcad56235f, ADMIN-UCSF-la120, 0, 7 + 1, Math Fluency, 8, 8, 2265.0, 1899.0, None, None, None, 2266.0, 0.0, 2265.0, May 14, 2018, 10:47:50 AM, 38870000, Spring, Third, 10, Right, Male, Group A, 87, None, None, 
103, 45ede1d54690874223a33cdcad56235f, ADMIN-UCSF-la120, 1, 6 - 0, Math Fluency, 6, 6, 1947.0, 4899.0, None, None, None, 5216.0, 3267.0, 5215.0, May 14, 2018, 10:47:53 AM, 38873000, Spring, Third, 10, Right, Male, Group A, 87, None, None, 
104, 45ede1d54690874223a33cdcad56235f, ADMIN-UCSF-la120, 2, 4 + 1, Math Fluency, 5, 5, 2480.0, 8385.0, None, None, None, 8699.0, 6217.0, 8699.0, May 14, 2018, 10:47:56 AM, 38876000, Spring, Third, 10, Right, Male, Group A, 87, None, None, 
105, 45ede1d54690874223a33cdcad56235f, ADMIN-UCSF-la120, 3, 1 + 8, Math Fluency, 9, 9, 1797.0, 11236.0, None, None, None, 11500.0, 9701.0, 11499.0, May 14, 2018, 10:47:59 AM, 38879000, Spring, Third, 10, Right, Male, Group A, 87, None, None, 
106, 45ede1d54690874223a33cdcad56235f, ADMIN-UCSF-la120, 4, 5 + 1, Math Fluency, 6, 6, 2229.0, 14383.0, None, None, None, 14732.0, 12501.0, 14732.0, May 14, 2018, 10:48:02 AM, 38882000, Spring, Third, 10, Right, Male, Group A, 87, None, None, 
107, 45ede1d54690874223a33cdcad56235f, ADMIN-UCSF-la120, 5, 5 - 3, Math Fluency, 2, 2, 1865.0, 17250.0, None, None, None, 17600.0, 15733.0, 17600.0, May 14, 2018, 10:48:05 AM, 38885000, Spring, Third, 10, Right, Male, Group A, 87, None, None, 
108, 45ede1d54690874223a33cdcad56235f, ADMIN-UCSF-la120, 6, 2 - 1, Math Fluency, 1, 1, 1530.0, 19754.0, None, None, None, 20133.0, 18602.0, 20133.0, May 14, 2018, 10:48:07 AM, 38887000, Spring, Third, 10, Right, Male, Group A, 87, None, None, 
109, 45ede1d54690874223a33cdcad56235f, ADMIN-UCSF-la120, 7, 7 + 2, Math Fluency, 9, 9, 1697.0, 22589.0, None, None, None, 22834.0, 21135.0, 22834.0, May 14, 2018, 10:48:10 AM, 38890000, Spring, Third, 10, Right, Male, Group A, 87, None, None, 
110, 45ede1d54690874223a33cdcad56235f, ADMIN-UCSF-la120, 8, 2 - 2, Math Fluency, 0, 0, 2079.0, 25318.0, None, None, None, 25918.0, 23836.0, 25918.0, May 14, 2018, 10:48:13 AM, 38893000, Spring, Third, 10, Right, Male, Group A, 87, None, None, 
111, 45ede1d54690874223a33cdcad56235f, ADMIN-UCSF-la120, 9, 1 - 1, Math Fluency, 0, 0, 1896.0, 28401.0, None, None, None, 28817.0, 26920.0, 28817.0, May 14, 2018, 10:48:16 AM, 38896000, Spring, Third, 10, Right, Male, Group A, 87, None, None, 
112, 45ede1d54690874223a33cdcad56235f, ADMIN-UCSF-la120, 10, 5 - 4, Math Fluency, 1, 1, 1798.0, 31138.0, None, None, None, 31618.0, 29819.0, 31618.0, May 14, 2018, 10:48:19 AM, 38899000, Spring, Third, 10, Right, Male, Group A, 87, None, None, 
113, 45ede1d54690874223a33cdcad56235f, ADMIN-UCSF-la120, 11, 3 - 1, Math Fluency, 2, 2, 1480.0, 33852.0, None, None, None, 34101.0, 32620.0, 34101.0, May 14, 2018, 10:48:21 AM, 38901000, Spring, Third, 10, Right, Male, Group A, 87, None, None, 
114, 45ede1d54690874223a33cdcad56235f, ADMIN-UCSF-la120, 12, 3 - 3, Math Fluency, 0, 0, 1867.0, 36521.0, None, None, None, 36972.0, 35103.0, 36972.0, May 14, 2018, 10:48:24 AM, 38904000, Spring, Third, 10, Right, Male, Group A, 87, None, None, 
115, 45ede1d54690874223a33cdcad56235f, ADMIN-UCSF-la120, 13, 2 + 4, Math Fluency, 6, 6, 2160.0, 39768.0, None, None, None, 40136.0, 37974.0, 40136.0, May 14, 2018, 10:48:27 AM, 38907000, Spring, Third, 10, Right, Male, Group A, 87, None, None, 
116, 45ede1d54690874223a33cdcad56235f, ADMIN-UCSF-la120, 14, 6 - 4, Math Fluency, 2, 2, 2712.0, 43605.0, None, None, None, 43851.0, 41138.0, 43851.0, May 14, 2018, 10:48:31 AM, 38911000, Spring, Third, 10, Right, Male, Group A, 87, None, None, 
117, 45ede1d54690874223a33cdcad56235f, ADMIN-UCSF-la120, 15, 0 + 0, Math Fluency, 0, 0, 1763.0, 46303.0, None, None, None, 46619.0, 44853.0, 46619.0, May 14, 2018, 10:48:34 AM, 38914000, Spring, Third, 10, Right, Male, Group A, 87, None, None, 
118, 45ede1d54690874223a33cdcad56235f, ADMIN-UCSF-la120, 16, 5 - 1, Math Fluency, 4, 4, 2698.0, 50087.0, None, None, None, 50319.0, 47620.0, 50319.0, May 14, 2018, 10:48:38 AM, 38918000, Spring, Third, 10, Right, Male, Group A, 87, None, None, 
119, 45ede1d54690874223a33cdcad56235f, ADMIN-UCSF-la120, 17, 3 + 3, Math Fluency, 6, 6, 2147.0, 53103.0, None, None, None, 53470.0, 51321.0, 53470.0, May 14, 2018, 10:48:41 AM, 38921000, Spring, Third, 10, Right, Male, Group A, 87, None, None, 
120, 45ede1d54690874223a33cdcad56235f, ADMIN-UCSF-la120, 18, 2 + 1, Math Fluency, 3, 3, 1881.0, 55908.0, None, None, None, 56354.0, 54471.0, 56354.0, May 14, 2018, 10:48:44 AM, 38924000, Spring, Third, 10, Right, Male, Group A, 87, None, None, 
121, 45ede1d54690874223a33cdcad56235f, ADMIN-UCSF-la120, 19, 0 + 3, Math Fluency, 3, 3, 4296.0, 61456.0, None, None, None, 61652.0, 57355.0, 61652.0, May 14, 2018, 10:48:49 AM, 38929000, Spring, Third, 10, Right, Male, Group A, 87, None, None, 
122, 45ede1d54690874223a33cdcad56235f, ADMIN-UCSF-la120, 20, 5 + 0, Math Fluency, 5, 5, 2798.0, 65207.0, None, None, None, 65454.0, 62654.0, 65454.0, May 14, 2018, 10:48:53 AM, 38933000, Spring, Third, 10, Right, Male, Group A, 87, None, None, 
123, 45ede1d54690874223a33cdcad56235f, ADMIN-UCSF-la120, 21, 3 + 4, Math Fluency, 7, 7, 2265.0, 68446.0, None, None, None, 68721.0, 66455.0, 68721.0, May 14, 2018, 10:48:56 AM, 38936000, Spring, Third, 10, Right, Male, Group A, 87, None, None, 
124, 45ede1d54690874223a33cdcad56235f, ADMIN-UCSF-la120, 22, 6 - 6, Math Fluency, 0, 0, 1895.0, 71206.0, None, None, None, 71620.0, 69723.0, 71619.0, May 14, 2018, 10:48:59 AM, 38939000, Spring, Third, 10, Right, Male, Group A, 87, None, None, 
125, 45ede1d54690874223a33cdcad56235f, ADMIN-UCSF-la120, 23, 6 - 3, Math Fluency, 3, 3, 3566.0, 75940.0, None, None, None, 76189.0, 72621.0, 76189.0, May 14, 2018, 10:49:03 AM, 38943000, Spring, Third, 10, Right, Male, Group A, 87, None, None, 
126, 45ede1d54690874223a33cdcad56235f, ADMIN-UCSF-la120, 24, 1 + 1, Math Fluency, 2, 2, 2197.0, 79109.0, None, None, None, 79389.0, 77191.0, 79389.0, May 14, 2018, 10:49:07 AM, 38947000, Spring, Third, 10, Right, Male, Group A, 87, None, None, 
127, 45ede1d54690874223a33cdcad56235f, ADMIN-UCSF-la120, 25, 4 - 2, Math Fluency, 2, 2, 1863.0, 81891.0, None, None, None, 82255.0, 80391.0, 82255.0, May 14, 2018, 10:49:10 AM, 38950000, Spring, Third, 10, Right, Male, Group A, 87, None, None, 
128, 45ede1d54690874223a33cdcad56235f, ADMIN-UCSF-la120, 26, 4 - 0, Math Fluency, 4, 4, 2031.0, 84843.0, None, None, None, 85289.0, 83257.0, 85289.0, May 14, 2018, 10:49:13 AM, 38953000, Spring, Third, 10, Right, Male, Group A, 87, None, None, 
129, 45ede1d54690874223a33cdcad56235f, ADMIN-UCSF-la120, 27, 1 - 0, Math Fluency, 1, 1, 1897.0, 87724.0, None, None, None, 88189.0, 86291.0, 88189.0, May 14, 2018, 10:49:15 AM, 38955000, Spring, Third, 10, Right, Male, Group A, 87, None, None, 
130, 45ede1d54690874223a33cdcad56235f, ADMIN-UCSF-la120, 28, 3 + 5, Math Fluency, 8, 8, 2315.0, 90874.0, None, None, None, 91507.0, 89191.0, 91507.0, May 14, 2018, 10:49:19 AM, 38959000, Spring, Third, 10, Right, Male, Group A, 87, None, None, 
131, 45ede1d54690874223a33cdcad56235f, ADMIN-UCSF-la120, 29, 1 + 6, Math Fluency, 7, 7, 2479.0, 94656.0, None, None, None, 94990.0, 92509.0, 94990.0, May 14, 2018, 10:49:22 AM, 38962000, Spring, Third, 10, Right, Male, Group A, 87, None, None, 
132, 45ede1d54690874223a33cdcad56235f, ADMIN-UCSF-la120, 30, 3 - 2, Math Fluency, 1, 1, 2198.0, 97778.0, None, None, None, 98191.0, 95992.0, 98191.0, May 14, 2018, 10:49:25 AM, 38965000, Spring, Third, 10, Right, Male, Group A, 87, None, None, 
133, 45ede1d54690874223a33cdcad56235f, ADMIN-UCSF-la120, 31, 8 - 2, Math Fluency, 6, 6, 3379.0, 102327.0, None, None, None, 102574.0, 99193.0, 102574.0, May 14, 2018, 10:49:30 AM, 38970000, Spring, Third, 10, Right, Male, Group A, 87, None, None, 
134, 45ede1d54690874223a33cdcad56235f, ADMIN-UCSF-la120, 32, 6 + 6, Math Fluency, 12, 12, 2180.0, 105207.0, 105424.0, None, None, 105757.0, 103575.0, 105757.0, May 14, 2018, 10:49:33 AM, 38973000, Spring, Third, 10, Right, Male, Group A, 87, None, None, 
135, 45ede1d54690874223a33cdcad56235f, ADMIN-UCSF-la120, 33, 8 + 0, Math Fluency, 8, 8, 1730.0, 108245.0, None, None, None, 108491.0, 106759.0, 108491.0, May 14, 2018, 10:49:36 AM, 38976000, Spring, Third, 10, Right, Male, Group A, 87, None, None, 
136, 45ede1d54690874223a33cdcad56235f, ADMIN-UCSF-la120, 34, 2 + 6, Math Fluency, 8, 8, 2130.0, 111379.0, None, None, None, 111625.0, 109493.0, 111625.0, May 14, 2018, 10:49:39 AM, 38979000, Spring, Third, 10, Right, Male, Group A, 87, None, None, 
137, 45ede1d54690874223a33cdcad56235f, ADMIN-UCSF-la120, 35, 4 + 4, Math Fluency, 8, 8, 1847.0, 114213.0, None, None, None, 114475.0, 112627.0, 114475.0, May 14, 2018, 10:49:42 AM, 38982000, Spring, Third, 10, Right, Male, Group A, 87, None, None, 
138, 45ede1d54690874223a33cdcad56235f, ADMIN-UCSF-la120, 36, 4 - 1, Math Fluency, 3, 3, 2546.0, 117763.0, None, None, None, 118026.0, 115478.0, 118025.0, May 14, 2018, 10:49:45 AM, 38985000, Spring, Third, 10, Right, Male, Group A, 87, None, None, 
139, 45ede1d54690874223a33cdcad56235f, ADMIN-UCSF-la120, 37, 9 + 3, Math Fluency, 12, 12, 2697.0, 121059.0, 121292.0, None, None, 121726.0, 119027.0, 121726.0, May 14, 2018, 10:49:49 AM, 38989000, Spring, Third, 10, Right, Male, Group A, 87, None, None, 
140, 45ede1d54690874223a33cdcad56235f, ADMIN-UCSF-la120, 38, 7 - 3, Math Fluency, 4, 4, 2147.0, 124594.0, None, None, None, 124876.0, 122728.0, 124876.0, May 14, 2018, 10:49:52 AM, 38992000, Spring, Third, 10, Right, Male, Group A, 87, None, None, 
141, 45ede1d54690874223a33cdcad56235f, ADMIN-UCSF-la120, 39, 10 - 4, Math Fluency, 6, 6, 2547.0, 128035.0, None, None, None, 128426.0, 125878.0, 128426.0, May 14, 2018, 10:49:56 AM, 38996000, Spring, Third, 10, Right, Male, Group A, 87, None, None, 
142, 45ede1d54690874223a33cdcad56235f, ADMIN-UCSF-la120, 40, 10 - 8, Math Fluency, 2, 2, 1930.0, 130979.0, None, None, None, 131360.0, 129429.0, 131360.0, May 14, 2018, 10:49:59 AM, 38999000, Spring, Third, 10, Right, Male, Group A, 87, None, None, 
143, 45ede1d54690874223a33cdcad56235f, ADMIN-UCSF-la120, 41, 9 - 5, Math Fluency, 4, 4, 2064.0, 134178.0, None, None, None, 134427.0, 132361.0, 134427.0, May 14, 2018, 10:50:02 AM, 39002000, Spring, Third, 10, Right, Male, Group A, 87, None, None, 
144, 45ede1d54690874223a33cdcad56235f, ADMIN-UCSF-la120, 42, 7 - 1, Math Fluency, 6, 6, 3097.0, 138276.0, None, None, None, 138527.0, 135428.0, 138527.0, May 14, 2018, 10:50:06 AM, 39006000, Spring, Third, 10, Right, Male, Group A, 87, None, None, 
145, 45ede1d54690874223a33cdcad56235f, ADMIN-UCSF-la120, 43, 9 + 9, Math Fluency, 18, 18, 2448.0, 141477.0, 141744.0, None, None, 141978.0, 139528.0, 141978.0, May 14, 2018, 10:50:09 AM, 39009000, Spring, Third, 10, Right, Male, Group A, 87, None, None, 
146, 45ede1d54690874223a33cdcad56235f, ADMIN-UCSF-la120, 44, 6 - 2, Math Fluency, 4, 4, 2679.0, 145411.0, None, None, None, 145661.0, 142980.0, 145661.0, May 14, 2018, 10:50:13 AM, 39013000, Spring, Third, 10, Right, Male, Group A, 87, None, None, 
147, 45ede1d54690874223a33cdcad56235f, ADMIN-UCSF-la120, 45, 2 + 8, Math Fluency, 10, 10, 3364.0, 149328.0, 149728.0, None, None, 150028.0, 146663.0, 150028.0, May 14, 2018, 10:50:17 AM, 39017000, Spring, Third, 10, Right, Male, Group A, 87, None, None, 
148, 45ede1d54690874223a33cdcad56235f, ADMIN-UCSF-la120, 46, 5 + 5, Math Fluency, 10, 10, 2382.0, 152811.0, 153011.0, None, None, 153417.0, 151030.0, 153416.0, May 14, 2018, 10:50:21 AM, 39021000, Spring, Third, 10, Right, Male, Group A, 87, None, None, 
149, 45ede1d54690874223a33cdcad56235f, ADMIN-UCSF-la120, 47, 8 + 4, Math Fluency, 12, 12, 2008.0, 155839.0, 156062.0, None, None, 156427.0, 154418.0, 156427.0, May 14, 2018, 10:50:24 AM, 39024000, Spring, Third, 10, Right, Male, Group A, 87, None, None, 
150, 45ede1d54690874223a33cdcad56235f, ADMIN-UCSF-la120, 48, 6 + 8, Math Fluency, 14, 14, 3098.0, 159997.0, 160278.0, None, None, 160529.0, 157429.0, 160529.0, May 14, 2018, 10:50:28 AM, 39028000, Spring, Third, 10, Right, Male, Group A, 87, None, None, 
151, 45ede1d54690874223a33cdcad56235f, ADMIN-UCSF-la120, 49, 5 - 2, Math Fluency, 3, 3, 2316.0, 163481.0, None, None, None, 163848.0, 161530.0, 163847.0, May 14, 2018, 10:50:31 AM, 39031000, Spring, Third, 10, Right, Male, Group A, 87, None, None, 
152, 45ede1d54690874223a33cdcad56235f, ADMIN-UCSF-la120, 50, 7 + 5, Math Fluency, 12, 12, 2795.0, 167062.0, 167280.0, None, None, 167645.0, 164850.0, 167645.0, May 14, 2018, 10:50:35 AM, 39035000, Spring, Third, 10, Right, Male, Group A, 87, None, None, 
153, 45ede1d54690874223a33cdcad56235f, ADMIN-UCSF-la120, 51, 10 - 2, Math Fluency, 8, 8, 1799.0, 170165.0, None, None, None, 170448.0, 168647.0, 170448.0, May 14, 2018, 10:50:38 AM, 39038000, Spring, Third, 10, Right, Male, Group A, 87, None, None, 
154, 45ede1d54690874223a33cdcad56235f, ADMIN-UCSF-la120, 52, 5 - 5, Math Fluency, 0, 0, 1794.0, 172847.0, None, None, None, 173245.0, 171450.0, 173245.0, May 14, 2018, 10:50:41 AM, 39041000, Spring, Third, 10, Right, Male, Group A, 87, None, None, 
155, 45ede1d54690874223a33cdcad56235f, ADMIN-UCSF-la120, 53, 1 + 9, Math Fluency, 10, 10, 2750.0, 176214.0, 176663.0, None, None, 176999.0, 174246.0, 176998.0, May 14, 2018, 10:50:44 AM, 39044000, Spring, Third, 10, Right, Male, Group A, 87, None, None, 
156, 45ede1d54690874223a33cdcad56235f, ADMIN-UCSF-la120, 0, A rabbit can fly, Reading Fluency Block 0, NO, NO, 2432.0, None, None, None, None, None, 0.0, 2432.0, May 14, 2018, 10:52:18 AM, 39138000, Spring, Third, 10, Right, Male, Group A, 87, None, None, None
157, 45ede1d54690874223a33cdcad56235f, ADMIN-UCSF-la120, 1, A ball is round, Reading Fluency Block 0, YES, YES, 2659.0, None, None, None, None, None, 3430.0, 6090.0, May 14, 2018, 10:52:22 AM, 39142000, Spring, Third, 10, Right, Male, Group A, 87, None, None, None
158, 45ede1d54690874223a33cdcad56235f, ADMIN-UCSF-la120, 2, A worm has two arms and legs, Reading Fluency Block 0, NO, NO, 2291.0, None, None, None, None, None, 7089.0, 9380.0, May 14, 2018, 10:52:25 AM, 39145000, Spring, Third, 10, Right, Male, Group A, 87, None, None, None
159, 45ede1d54690874223a33cdcad56235f, ADMIN-UCSF-la120, 3, Shoes go on your feet, Reading Fluency Block 0, YES, YES, 2231.0, None, None, None, None, None, 10382.0, 12614.0, May 14, 2018, 10:52:28 AM, 39148000, Spring, Third, 10, Right, Male, Group A, 87, None, None, None
160, 45ede1d54690874223a33cdcad56235f, ADMIN-UCSF-la120, 4, Cats have five legs, Reading Fluency Block 0, NO, NO, 1930.0, None, None, None, None, None, 13616.0, 15547.0, May 14, 2018, 10:52:31 AM, 39151000, Spring, Third, 10, Right, Male, Group A, 87, None, None, None
161, 45ede1d54690874223a33cdcad56235f, ADMIN-UCSF-la120, 5, A magazine has pages, Reading Fluency Block 0, YES, YES, 1597.0, None, None, None, None, None, 16549.0, 18147.0, May 14, 2018, 10:52:34 AM, 39154000, Spring, Third, 10, Right, Male, Group A, 87, None, None, None
162, 45ede1d54690874223a33cdcad56235f, ADMIN-UCSF-la120, 6, People hear with their ears, Reading Fluency Block 0, YES, YES, 2364.0, None, None, None, None, None, 19149.0, 21513.0, May 14, 2018, 10:52:37 AM, 39157000, Spring, Third, 10, Right, Male, Group A, 87, None, None, None
163, 45ede1d54690874223a33cdcad56235f, ADMIN-UCSF-la120, 7, A chicken can lay an egg, Reading Fluency Block 0, YES, YES, 1633.0, None, None, None, None, None, 22515.0, 24149.0, May 14, 2018, 10:52:40 AM, 39160000, Spring, Third, 10, Right, Male, Group A, 87, None, None, None
164, 45ede1d54690874223a33cdcad56235f, ADMIN-UCSF-la120, 8, The letter 'S' is a number, Reading Fluency Block 0, NO, NO, 2395.0, None, None, None, None, None, 25151.0, 27548.0, May 14, 2018, 10:52:43 AM, 39163000, Spring, Third, 10, Right, Male, Group A, 87, None, None, None
165, 45ede1d54690874223a33cdcad56235f, ADMIN-UCSF-la120, 9, You can eat a banana, Reading Fluency Block 0, YES, YES, 2498.0, None, None, None, None, None, 28550.0, 31049.0, May 14, 2018, 10:52:47 AM, 39167000, Spring, Third, 10, Right, Male, Group A, 87, None, None, None
166, 45ede1d54690874223a33cdcad56235f, ADMIN-UCSF-la120, 10, Many people like to read, Reading Fluency Block 1, YES, YES, 2646.0, None, None, None, None, None, 28550.0, 34698.0, May 14, 2018, 10:52:50 AM, 39170000, Spring, Third, 10, Right, Male, Group A, 87, None, None, None
167, 45ede1d54690874223a33cdcad56235f, ADMIN-UCSF-la120, 11, Fleas are small, Reading Fluency Block 1, YES, YES, 2847.0, None, None, None, None, None, 35700.0, 38548.0, May 14, 2018, 10:52:54 AM, 39174000, Spring, Third, 10, Right, Male, Group A, 87, None, None, None
168, 45ede1d54690874223a33cdcad56235f, ADMIN-UCSF-la120, 12, Some farmers can grow vegetables, Reading Fluency Block 1, YES, YES, 2342.0, None, None, None, None, None, 39550.0, 41894.0, May 14, 2018, 10:52:57 AM, 39177000, Spring, Third, 10, Right, Male, Group A, 87, None, None, None
169, 45ede1d54690874223a33cdcad56235f, ADMIN-UCSF-la120, 13, A boat flies in the sky, Reading Fluency Block 1, NO, NO, 2504.0, None, None, None, None, None, 42895.0, 45400.0, May 14, 2018, 10:53:01 AM, 39181000, Spring, Third, 10, Right, Male, Group A, 87, None, None, None
170, 45ede1d54690874223a33cdcad56235f, ADMIN-UCSF-la120, 14, The stars are in the sky, Reading Fluency Block 1, YES, YES, 1930.0, None, None, None, None, None, 46402.0, 48332.0, May 14, 2018, 10:53:04 AM, 39184000, Spring, Third, 10, Right, Male, Group A, 87, None, None, None
171, 45ede1d54690874223a33cdcad56235f, ADMIN-UCSF-la120, 15, A dictionary has many words, Reading Fluency Block 1, YES, YES, 2010.0, None, None, None, None, None, 49335.0, 51346.0, May 14, 2018, 10:53:07 AM, 39187000, Spring, Third, 10, Right, Male, Group A, 87, None, None, None
172, 45ede1d54690874223a33cdcad56235f, ADMIN-UCSF-la120, 16, A knife can be used for hearing, Reading Fluency Block 1, NO, NO, 2068.0, None, None, None, None, None, 52348.0, 54417.0, May 14, 2018, 10:53:10 AM, 39190000, Spring, Third, 10, Right, Male, Group A, 87, None, None, None
173, 45ede1d54690874223a33cdcad56235f, ADMIN-UCSF-la120, 17, There are some days when the sky is green, Reading Fluency Block 1, YES, NO, 2849.0, None, None, None, None, None, 55419.0, 58270.0, May 14, 2018, 10:53:14 AM, 39194000, Spring, Third, 10, Right, Male, Group A, 87, None, None, None
174, 45ede1d54690874223a33cdcad56235f, ADMIN-UCSF-la120, 18, The letter 'E' Is the last letter of the alphabet, Reading Fluency Block 1, NO, NO, 2294.0, None, None, None, None, None, 59272.0, 61568.0, May 14, 2018, 10:53:17 AM, 39197000, Spring, Third, 10, Right, Male, Group A, 87, None, None, None
175, 45ede1d54690874223a33cdcad56235f, ADMIN-UCSF-la120, 19, A puppy grows into a deer, Reading Fluency Block 1, NO, NO, 3134.0, None, None, None, None, None, 62570.0, 65705.0, May 14, 2018, 10:53:21 AM, 39201000, Spring, Third, 10, Right, Male, Group A, 87, None, None, None
176, 45ede1d54690874223a33cdcad56235f, ADMIN-UCSF-la120, 20, Bears are small animals, Reading Fluency Block 2, NO, NO, 2011.0, None, None, None, None, None, 62570.0, 68718.0, May 14, 2018, 10:53:24 AM, 39204000, Spring, Third, 10, Right, Male, Group A, 87, None, None, None
177, 45ede1d54690874223a33cdcad56235f, ADMIN-UCSF-la120, 21, March is the month after May, Reading Fluency Block 2, NO, NO, 3015.0, None, None, None, None, None, 69719.0, 72735.0, May 14, 2018, 10:53:28 AM, 39208000, Spring, Third, 10, Right, Male, Group A, 87, None, None, None
178, 45ede1d54690874223a33cdcad56235f, ADMIN-UCSF-la120, 22, Sports can be played with balls, Reading Fluency Block 2, YES, YES, 1830.0, None, None, None, None, None, 73737.0, 75568.0, May 14, 2018, 10:53:31 AM, 39211000, Spring, Third, 10, Right, Male, Group A, 87, None, None, None
179, 45ede1d54690874223a33cdcad56235f, ADMIN-UCSF-la120, 23, A man may wear a shirt, Reading Fluency Block 2, NO, YES, 3432.0, None, None, None, None, None, 76570.0, 80002.0, May 14, 2018, 10:53:35 AM, 39215000, Spring, Third, 10, Right, Male, Group A, 87, None, None, None
180, 45ede1d54690874223a33cdcad56235f, ADMIN-UCSF-la120, 24, People may listen to music on a computer, Reading Fluency Block 2, YES, YES, 3413.0, None, None, None, None, None, 81004.0, 84419.0, May 14, 2018, 10:53:40 AM, 39220000, Spring, Third, 10, Right, Male, Group A, 87, None, None, None
181, 45ede1d54690874223a33cdcad56235f, ADMIN-UCSF-la120, 25, A cat has two ears, Reading Fluency Block 2, YES, YES, 1830.0, None, None, None, None, None, 85421.0, 87252.0, May 14, 2018, 10:53:43 AM, 39223000, Spring, Third, 10, Right, Male, Group A, 87, None, None, None
182, 45ede1d54690874223a33cdcad56235f, ADMIN-UCSF-la120, 26, People like to eat pasta with a pen, Reading Fluency Block 2, NO, NO, 1881.0, None, None, None, None, None, 88254.0, 90136.0, May 14, 2018, 10:53:46 AM, 39226000, Spring, Third, 10, Right, Male, Group A, 87, None, None, None
183, 45ede1d54690874223a33cdcad56235f, ADMIN-UCSF-la120, 27, The basement is at the bottom of a house, Reading Fluency Block 2, YES, YES, 2081.0, None, None, None, None, None, 91138.0, 93219.0, May 14, 2018, 10:53:49 AM, 39229000, Spring, Third, 10, Right, Male, Group A, 87, None, None, None
184, 45ede1d54690874223a33cdcad56235f, ADMIN-UCSF-la120, 28, Many bushes have green leaves, Reading Fluency Block 2, YES, YES, 1749.0, None, None, None, None, None, 94221.0, 95971.0, May 14, 2018, 10:53:51 AM, 39231000, Spring, Third, 10, Right, Male, Group A, 87, None, None, None
185, 45ede1d54690874223a33cdcad56235f, ADMIN-UCSF-la120, 29, A key may open a lock, Reading Fluency Block 2, NO, YES, 2362.0, None, None, None, None, None, 96973.0, 99336.0, May 14, 2018, 10:53:55 AM, 39235000, Spring, Third, 10, Right, Male, Group A, 87, None, None, None
186, 45ede1d54690874223a33cdcad56235f, ADMIN-UCSF-la120, 30, People can call with a phone, Reading Fluency Block 3, YES, YES, 2367.0, None, None, None, None, None, 96973.0, 102706.0, May 14, 2018, 10:53:58 AM, 39238000, Spring, Third, 10, Right, Male, Group A, 87, None, None, None
187, 45ede1d54690874223a33cdcad56235f, ADMIN-UCSF-la120, 31, People write an address on an envelope before they mail it, Reading Fluency Block 3, YES, YES, 2228.0, None, None, None, None, None, 103709.0, 105937.0, May 14, 2018, 10:54:01 AM, 39241000, Spring, Third, 10, Right, Male, Group A, 87, None, None, None
188, 45ede1d54690874223a33cdcad56235f, ADMIN-UCSF-la120, 32, A box may be made of plastic, Reading Fluency Block 3, YES, YES, 1446.0, None, None, None, None, None, 106939.0, 108386.0, May 14, 2018, 10:54:04 AM, 39244000, Spring, Third, 10, Right, Male, Group A, 87, None, None, None
189, 45ede1d54690874223a33cdcad56235f, ADMIN-UCSF-la120, 33, A bowl may break if it is dropped on the floor, Reading Fluency Block 3, YES, YES, 1235.0, None, None, None, None, None, 109387.0, 110623.0, May 14, 2018, 10:54:06 AM, 39246000, Spring, Third, 10, Right, Male, Group A, 87, None, None, None
190, 45ede1d54690874223a33cdcad56235f, ADMIN-UCSF-la120, 34, Some tricycles have three wheels, Reading Fluency Block 3, YES, YES, 1396.0, None, None, None, None, None, 111625.0, 113022.0, May 14, 2018, 10:54:08 AM, 39248000, Spring, Third, 10, Right, Male, Group A, 87, None, None, None
191, 45ede1d54690874223a33cdcad56235f, ADMIN-UCSF-la120, 35, The weather in summer is always cold, Reading Fluency Block 3, YES, NO, 713.0, None, None, None, None, None, 114024.0, 114738.0, May 14, 2018, 10:54:10 AM, 39250000, Spring, Third, 10, Right, Male, Group A, 87, None, None, None
192, 45ede1d54690874223a33cdcad56235f, ADMIN-UCSF-la120, 36, Swimming pools are always filled with bouncy balls, Reading Fluency Block 3, NO, NO, 1680.0, None, None, None, None, None, 115740.0, 117422.0, May 14, 2018, 10:54:13 AM, 39253000, Spring, Third, 10, Right, Male, Group A, 87, None, None, None
193, 45ede1d54690874223a33cdcad56235f, ADMIN-UCSF-la120, 37, 'H' is a letter of the alphabet, Reading Fluency Block 3, NO, YES, 1364.0, None, None, None, None, None, 118423.0, 119789.0, May 14, 2018, 10:54:15 AM, 39255000, Spring, Third, 10, Right, Male, Group A, 87, None, None, None
194, 45ede1d54690874223a33cdcad56235f, ADMIN-UCSF-la120, 38, A bike has handles, Reading Fluency Block 3, YES, YES, 1881.0, None, None, None, None, None, 120790.0, 122672.0, May 14, 2018, 10:54:18 AM, 39258000, Spring, Third, 10, Right, Male, Group A, 87, None, None, None
195, 45ede1d54690874223a33cdcad56235f, ADMIN-UCSF-la120, 39, A bottle may be full, Reading Fluency Block 3, YES, YES, 1349.0, None, None, None, None, None, 123674.0, 125024.0, May 14, 2018, 10:54:20 AM, 39260000, Spring, Third, 10, Right, Male, Group A, 87, None, None, None
196, 45ede1d54690874223a33cdcad56235f, ADMIN-UCSF-la120, 40, A shelf can be hung on a wall, Reading Fluency Block 4, YES, YES, 1471.0, None, None, None, None, None, 123674.0, 127499.0, May 14, 2018, 10:54:23 AM, 39263000, Spring, Third, 10, Right, Male, Group A, 87, None, None, None
197, 45ede1d54690874223a33cdcad56235f, ADMIN-UCSF-la120, 41, Many horses and lions wear long pants, Reading Fluency Block 4, NO, NO, 1587.0, None, None, None, None, None, 128501.0, 130089.0, May 14, 2018, 10:54:26 AM, 39266000, Spring, Third, 10, Right, Male, Group A, 87, None, None, None
198, 45ede1d54690874223a33cdcad56235f, ADMIN-UCSF-la120, 42, A child may hide inside a shoe, Reading Fluency Block 4, YES, NO, 1566.0, None, None, None, None, None, 131091.0, 132658.0, May 14, 2018, 10:54:28 AM, 39268000, Spring, Third, 10, Right, Male, Group A, 87, None, None, None
199, 45ede1d54690874223a33cdcad56235f, ADMIN-UCSF-la120, 43, Most people laugh when they are upset, Reading Fluency Block 4, NO, NO, 1452.0, None, None, None, None, None, 133660.0, 135112.0, May 14, 2018, 10:54:31 AM, 39271000, Spring, Third, 10, Right, Male, Group A, 87, None, None, None
200, 45ede1d54690874223a33cdcad56235f, ADMIN-UCSF-la120, 44, A fish makes nests from sticks, Reading Fluency Block 4, YES, NO, 1142.0, None, None, None, None, None, 136114.0, 137257.0, May 14, 2018, 10:54:33 AM, 39273000, Spring, Third, 10, Right, Male, Group A, 87, None, None, None
201, 45ede1d54690874223a33cdcad56235f, ADMIN-UCSF-la120, 45, May is the first day of the week, Reading Fluency Block 4, NO, NO, 1881.0, None, None, None, None, None, 138259.0, 140141.0, May 14, 2018, 10:54:36 AM, 39276000, Spring, Third, 10, Right, Male, Group A, 87, None, None, None
202, 45ede1d54690874223a33cdcad56235f, ADMIN-UCSF-la120, 46, It may be cold inside of a freezer, Reading Fluency Block 4, YES, YES, 1780.0, None, None, None, None, None, 141143.0, 142925.0, May 14, 2018, 10:54:38 AM, 39278000, Spring, Third, 10, Right, Male, Group A, 87, None, None, None
203, 45ede1d54690874223a33cdcad56235f, ADMIN-UCSF-la120, 47, All spiders have only four legs, Reading Fluency Block 4, NO, NO, 2366.0, None, None, None, None, None, 143927.0, 146294.0, May 14, 2018, 10:54:42 AM, 39282000, Spring, Third, 10, Right, Male, Group A, 87, None, None, None
204, 45ede1d54690874223a33cdcad56235f, ADMIN-UCSF-la120, 48, A baby may want a toy, Reading Fluency Block 4, YES, YES, 2429.0, None, None, None, None, None, 147295.0, 149725.0, May 14, 2018, 10:54:45 AM, 39285000, Spring, Third, 10, Right, Male, Group A, 87, None, None, None
205, 45ede1d54690874223a33cdcad56235f, ADMIN-UCSF-la120, 49, Grapefruits can be used to make juice for breakfast, Reading Fluency Block 4, NO, YES, 2501.0, None, None, None, None, None, 150727.0, 153228.0, May 14, 2018, 10:54:49 AM, 39289000, Spring, Third, 10, Right, Male, Group A, 87, None, None, None
206, 45ede1d54690874223a33cdcad56235f, ADMIN-UCSF-la120, 50, A book has many words, Reading Fluency Block 5, YES, YES, 310.0, None, None, None, None, None, 150727.0, 154541.0, May 14, 2018, 10:54:50 AM, 39290000, Spring, Third, 10, Right, Male, Group A, 87, None, None, None
207, 45ede1d54690874223a33cdcad56235f, ADMIN-UCSF-la120, 51, Sheep tend to live under water, Reading Fluency Block 5, YES, NO, 1135.0, None, None, None, None, None, 155543.0, 156679.0, May 14, 2018, 10:54:52 AM, 39292000, Spring, Third, 10, Right, Male, Group A, 87, None, None, None
208, 45ede1d54690874223a33cdcad56235f, ADMIN-UCSF-la120, 52, Many fruits grow on trees, Reading Fluency Block 5, YES, YES, 929.0, None, None, None, None, None, 157680.0, 158610.0, May 14, 2018, 10:54:54 AM, 39294000, Spring, Third, 10, Right, Male, Group A, 87, None, None, None
209, 45ede1d54690874223a33cdcad56235f, ADMIN-UCSF-la120, 53, A forest has plenty of trees, Reading Fluency Block 5, YES, YES, 2228.0, None, None, None, None, None, 159613.0, 161842.0, May 14, 2018, 10:54:57 AM, 39297000, Spring, Third, 10, Right, Male, Group A, 87, None, None, None
210, 45ede1d54690874223a33cdcad56235f, ADMIN-UCSF-la120, 54, All girls have brown eyes and blonde hair, Reading Fluency Block 5, YES, NO, 1566.0, None, None, None, None, None, 162844.0, 164410.0, May 14, 2018, 10:55:00 AM, 39300000, Spring, Third, 10, Right, Male, Group A, 87, None, None, None
211, 45ede1d54690874223a33cdcad56235f, ADMIN-UCSF-la120, 55, Horses often go to school in a bus, Reading Fluency Block 5, YES, NO, 1965.0, None, None, None, None, None, 165412.0, 167378.0, May 14, 2018, 10:55:03 AM, 39303000, Spring, Third, 10, Right, Male, Group A, 87, None, None, None
212, 45ede1d54690874223a33cdcad56235f, ADMIN-UCSF-la120, 56, Some students draw pictures when they are in school, Reading Fluency Block 5, YES, YES, 2845.0, None, None, None, None, None, 168380.0, 171226.0, May 14, 2018, 10:55:07 AM, 39307000, Spring, Third, 10, Right, Male, Group A, 87, None, None, None
213, 45ede1d54690874223a33cdcad56235f, ADMIN-UCSF-la120, 57, Some people wear scarves in winter, Reading Fluency Block 5, YES, YES, 2680.0, None, None, None, None, None, 172229.0, 174910.0, May 14, 2018, 10:55:10 AM, 39310000, Spring, Third, 10, Right, Male, Group A, 87, None, None, None
214, 45ede1d54690874223a33cdcad56235f, ADMIN-UCSF-la120, 58, Teenagers are all different ages, Reading Fluency Block 5, NO, YES, 2347.0, None, None, None, None, None, 175913.0, 178260.0, May 14, 2018, 10:55:14 AM, 39314000, Spring, Third, 10, Right, Male, Group A, 87, None, None, None
215, 45ede1d54690874223a33cdcad56235f, ADMIN-UCSF-la120, 0, You can look at a book., Reading Comprehension, YES, YES, 1468.0, None, None, None, None, None, 0.0, 1468.0, May 14, 2018, 10:56:55 AM, 39415000, Spring, Third, 10, Right, Male, Group A, 87, None, None, None
216, 45ede1d54690874223a33cdcad56235f, ADMIN-UCSF-la120, 1, Snow is green., Reading Comprehension, NO, NO, 1266.0, None, None, None, None, None, 2470.0, 3737.0, May 14, 2018, 10:56:58 AM, 39418000, Spring, Third, 10, Right, Male, Group A, 87, None, None, None
217, 45ede1d54690874223a33cdcad56235f, ADMIN-UCSF-la120, 2, You can fly a kite., Reading Comprehension, YES, YES, 1278.0, None, None, None, None, None, 4739.0, 6018.0, May 14, 2018, 10:57:00 AM, 39420000, Spring, Third, 10, Right, Male, Group A, 87, None, None, None
218, 45ede1d54690874223a33cdcad56235f, ADMIN-UCSF-la120, 3, A father can go to work., Reading Comprehension, YES, YES, 1297.0, None, None, None, None, None, 7020.0, 8318.0, May 14, 2018, 10:57:02 AM, 39422000, Spring, Third, 10, Right, Male, Group A, 87, None, None, None
219, 45ede1d54690874223a33cdcad56235f, ADMIN-UCSF-la120, 4, Ants have hats., Reading Comprehension, NO, NO, 1336.0, None, None, None, None, None, 9320.0, 10657.0, May 14, 2018, 10:57:04 AM, 39424000, Spring, Third, 10, Right, Male, Group A, 87, None, None, None
220, 45ede1d54690874223a33cdcad56235f, ADMIN-UCSF-la120, 5, A tiger will roar., Reading Comprehension, YES, YES, 1176.0, None, None, None, None, None, 11659.0, 12835.0, May 14, 2018, 10:57:07 AM, 39427000, Spring, Third, 10, Right, Male, Group A, 87, None, None, None
221, 45ede1d54690874223a33cdcad56235f, ADMIN-UCSF-la120, 6, You can ride a rooster., Reading Comprehension, YES, NO, 1530.0, None, None, None, None, None, 13837.0, 15368.0, May 14, 2018, 10:57:09 AM, 39429000, Spring, Third, 10, Right, Male, Group A, 87, None, None, None
222, 45ede1d54690874223a33cdcad56235f, ADMIN-UCSF-la120, 7, Football is played by frogs., Reading Comprehension, YES, NO, 1747.0, None, None, None, None, None, 16370.0, 18118.0, May 14, 2018, 10:57:12 AM, 39432000, Spring, Third, 10, Right, Male, Group A, 87, None, None, None
223, 45ede1d54690874223a33cdcad56235f, ADMIN-UCSF-la120, 8, You wear a ring on your elbow., Reading Comprehension, NO, NO, 2889.0, None, None, None, None, None, 19120.0, 22011.0, May 14, 2018, 10:57:16 AM, 39436000, Spring, Third, 10, Right, Male, Group A, 87, None, None, None
224, 45ede1d54690874223a33cdcad56235f, ADMIN-UCSF-la120, 9, You might find a cabin in the woods., Reading Comprehension, YES, YES, 2288.0, None, None, None, None, None, 23013.0, 25302.0, May 14, 2018, 10:57:19 AM, 39439000, Spring, Third, 10, Right, Male, Group A, 87, None, None, None
225, 45ede1d54690874223a33cdcad56235f, ADMIN-UCSF-la120, 10, A lighthouse shines brightly at night., Reading Comprehension, YES, YES, 2898.0, None, None, None, None, None, 26303.0, 29203.0, May 14, 2018, 10:57:23 AM, 39443000, Spring, Third, 10, Right, Male, Group A, 87, None, None, None
226, 45ede1d54690874223a33cdcad56235f, ADMIN-UCSF-la120, 11, You can grow onions in a tree., Reading Comprehension, YES, NO, 1899.0, None, None, None, None, None, 30204.0, 32104.0, May 14, 2018, 10:57:26 AM, 39446000, Spring, Third, 10, Right, Male, Group A, 87, None, None, None
227, 45ede1d54690874223a33cdcad56235f, ADMIN-UCSF-la120, 12, A storm can produce flooding., Reading Comprehension, YES, YES, 2913.0, None, None, None, None, None, 33106.0, 36020.0, May 14, 2018, 10:57:30 AM, 39450000, Spring, Third, 10, Right, Male, Group A, 87, None, None, None
228, 45ede1d54690874223a33cdcad56235f, ADMIN-UCSF-la120, 13, Ladders are always made of steak., Reading Comprehension, NO, NO, 1899.0, None, None, None, None, None, 37021.0, 38922.0, May 14, 2018, 10:57:33 AM, 39453000, Spring, Third, 10, Right, Male, Group A, 87, None, None, None
229, 45ede1d54690874223a33cdcad56235f, ADMIN-UCSF-la120, 14, A horse can slide up a mountain covered in snow., Reading Comprehension, YES, NO, 1628.0, None, None, None, None, None, 39924.0, 41553.0, May 14, 2018, 10:57:35 AM, 39455000, Spring, Third, 10, Right, Male, Group A, 87, None, None, None
230, 45ede1d54690874223a33cdcad56235f, ADMIN-UCSF-la120, 15, A student may have to go see the principal., Reading Comprehension, NO, YES, 1214.0, None, None, None, None, None, 42555.0, 43770.0, May 14, 2018, 10:57:38 AM, 39458000, Spring, Third, 10, Right, Male, Group A, 87, None, None, None
231, 45ede1d54690874223a33cdcad56235f, ADMIN-UCSF-la120, 16, A family might go to the store to purchase a bed., Reading Comprehension, YES, YES, 648.0, None, None, None, None, None, 44772.0, 45421.0, May 14, 2018, 10:57:39 AM, 39459000, Spring, Third, 10, Right, Male, Group A, 87, None, None, None
232, 45ede1d54690874223a33cdcad56235f, ADMIN-UCSF-la120, 17, Lobsters might be found eating grain in a snowstorm., Reading Comprehension, YES, NO, 999.0, None, None, None, None, None, 46423.0, 47423.0, May 14, 2018, 10:57:41 AM, 39461000, Spring, Third, 10, Right, Male, Group A, 87, None, None, None
233, 45ede1d54690874223a33cdcad56235f, ADMIN-UCSF-la120, 18, You might invite your friends over to your birthday party., Reading Comprehension, YES, YES, 2245.0, None, None, None, None, None, 48425.0, 50671.0, May 14, 2018, 10:57:44 AM, 39464000, Spring, Third, 10, Right, Male, Group A, 87, None, None, None
234, 45ede1d54690874223a33cdcad56235f, ADMIN-UCSF-la120, 19, A salmon will run after bears to eat them for dinner., Reading Comprehension, YES, NO, 2148.0, None, None, None, None, None, 51672.0, 53821.0, May 14, 2018, 10:57:48 AM, 39468000, Spring, Third, 10, Right, Male, Group A, 87, None, None, None
235, 45ede1d54690874223a33cdcad56235f, ADMIN-UCSF-la120, 20, Bacon is grown in dry climates., Reading Comprehension, NO, NO, 2465.0, None, None, None, None, None, 54823.0, 57289.0, May 14, 2018, 10:57:51 AM, 39471000, Spring, Third, 10, Right, Male, Group A, 87, None, None, None
236, 45ede1d54690874223a33cdcad56235f, ADMIN-UCSF-la120, 21, A boy may make a girl blush by giving her candy and flowers., Reading Comprehension, YES, YES, 3147.0, None, None, None, None, None, 58291.0, 61439.0, May 14, 2018, 10:57:55 AM, 39475000, Spring, Third, 10, Right, Male, Group A, 87, None, None, None
237, 45ede1d54690874223a33cdcad56235f, ADMIN-UCSF-la120, 22, The planets can be found in a pineapple under the sea., Reading Comprehension, NO, NO, 2081.0, None, None, None, None, None, 62441.0, 64523.0, May 14, 2018, 10:57:58 AM, 39478000, Spring, Third, 10, Right, Male, Group A, 87, None, None, None
238, 45ede1d54690874223a33cdcad56235f, ADMIN-UCSF-la120, 23, You might find an old arrowhead buried in the dirt., Reading Comprehension, YES, YES, 1980.0, None, None, None, None, None, 65525.0, 67505.0, May 14, 2018, 10:58:01 AM, 39481000, Spring, Third, 10, Right, Male, Group A, 87, None, None, None
239, 45ede1d54690874223a33cdcad56235f, ADMIN-UCSF-la120, 24, A relative can be your cousin., Reading Comprehension, YES, YES, 1615.0, None, None, None, None, None, 68508.0, 70124.0, May 14, 2018, 10:58:04 AM, 39484000, Spring, Third, 10, Right, Male, Group A, 87, None, None, None
240, 45ede1d54690874223a33cdcad56235f, ADMIN-UCSF-la120, 25, You can find several bodyguards at the White House., Reading Comprehension, YES, YES, 1812.0, None, None, None, None, None, 71127.0, 72939.0, May 14, 2018, 10:58:07 AM, 39487000, Spring, Third, 10, Right, Male, Group A, 87, None, None, None
241, 45ede1d54690874223a33cdcad56235f, ADMIN-UCSF-la120, 26, Velvet is an expensive product made of hamsters., Reading Comprehension, YES, NO, 3231.0, None, None, None, None, None, 73941.0, 77173.0, May 14, 2018, 10:58:11 AM, 39491000, Spring, Third, 10, Right, Male, Group A, 87, None, None, None
242, 45ede1d54690874223a33cdcad56235f, ADMIN-UCSF-la120, 27, Potato farmers love droughts in the spring., Reading Comprehension, NO, NO, 2697.0, None, None, None, None, None, 78175.0, 80874.0, May 14, 2018, 10:58:15 AM, 39495000, Spring, Third, 10, Right, Male, Group A, 87, None, None, None
243, 45ede1d54690874223a33cdcad56235f, ADMIN-UCSF-la120, 28, A man might smoke a cigar while playing a game of poker with friends., Reading Comprehension, YES, YES, 3614.0, None, None, None, None, None, 81876.0, 85491.0, May 14, 2018, 10:58:19 AM, 39499000, Spring, Third, 10, Right, Male, Group A, 87, None, None, None
244, 45ede1d54690874223a33cdcad56235f, ADMIN-UCSF-la120, 29, Guppies gallop faster than horses., Reading Comprehension, NO, NO, 2782.0, None, None, None, None, None, 86493.0, 89278.0, May 14, 2018, 10:58:23 AM, 39503000, Spring, Third, 10, Right, Male, Group A, 87, None, None, None
245, 45ede1d54690874223a33cdcad56235f, ADMIN-UCSF-la120, 30, A teacher might have an assistant in the classroom., Reading Comprehension, YES, YES, 2329.0, None, None, None, None, None, 90279.0, 92610.0, May 14, 2018, 10:58:26 AM, 39506000, Spring, Third, 10, Right, Male, Group A, 87, None, None, None
246, 45ede1d54690874223a33cdcad56235f, ADMIN-UCSF-la120, 31, You might go to a conference to learn more about playing chess., Reading Comprehension, YES, YES, 2462.0, None, None, None, None, None, 93612.0, 96074.0, May 14, 2018, 10:58:30 AM, 39510000, Spring, Third, 10, Right, Male, Group A, 87, None, None, None
247, 45ede1d54690874223a33cdcad56235f, ADMIN-UCSF-la120, 32, A doctor uses a telescope to check your heart., Reading Comprehension, NO, NO, 2214.0, None, None, None, None, None, 97076.0, 99291.0, May 14, 2018, 10:58:33 AM, 39513000, Spring, Third, 10, Right, Male, Group A, 87, None, None, None
248, 45ede1d54690874223a33cdcad56235f, ADMIN-UCSF-la120, 33, A canon is a small owl that is easily thrown into the air., Reading Comprehension, YES, NO, 3014.0, None, None, None, None, None, 100293.0, 103308.0, May 14, 2018, 10:58:37 AM, 39517000, Spring, Third, 10, Right, Male, Group A, 87, None, None, None
249, 45ede1d54690874223a33cdcad56235f, ADMIN-UCSF-la120, 34, Dwarf hamsters eat entire trees., Reading Comprehension, NO, NO, 2949.0, None, None, None, None, None, 104310.0, 107260.0, May 14, 2018, 10:58:41 AM, 39521000, Spring, Third, 10, Right, Male, Group A, 87, None, None, None
250, 45ede1d54690874223a33cdcad56235f, ADMIN-UCSF-la120, 35, A girl can be a bridesmaid in her sister's wedding., Reading Comprehension, YES, YES, 3179.0, None, None, None, None, None, 108262.0, 111442.0, May 14, 2018, 10:58:45 AM, 39525000, Spring, Third, 10, Right, Male, Group A, 87, None, None, None
251, 45ede1d54690874223a33cdcad56235f, ADMIN-UCSF-la120, 36, A cowboy is a person who enjoys riding seals., Reading Comprehension, NO, NO, 2516.0, None, None, None, None, None, 112444.0, 114961.0, May 14, 2018, 10:58:49 AM, 39529000, Spring, Third, 10, Right, Male, Group A, 87, None, None, None
252, 45ede1d54690874223a33cdcad56235f, ADMIN-UCSF-la120, 37, Eyeglasses are meant to be worn inside your socks., Reading Comprehension, NO, NO, 2763.0, None, None, None, None, None, 115963.0, 118727.0, May 14, 2018, 10:58:53 AM, 39533000, Spring, Third, 10, Right, Male, Group A, 87, None, None, None
253, 45ede1d54690874223a33cdcad56235f, ADMIN-UCSF-la120, 38, A blacksmith hammers shoes for horses out of hot metal., Reading Comprehension, NO, YES, 2615.0, None, None, None, None, None, 119729.0, 122345.0, May 14, 2018, 10:58:56 AM, 39536000, Spring, Third, 10, Right, Male, Group A, 87, None, None, None
254, 45ede1d54690874223a33cdcad56235f, ADMIN-UCSF-la120, 39, You might use goggles to see while swimming underwater., Reading Comprehension, YES, YES, 3864.0, None, None, None, None, None, 123346.0, 127211.0, May 14, 2018, 10:59:01 AM, 39541000, Spring, Third, 10, Right, Male, Group A, 87, None, None, None
255, 45ede1d54690874223a33cdcad56235f, ADMIN-UCSF-la120, 40, Sneezing when you go out is an emergency., Reading Comprehension, NO, NO, 3514.0, None, None, None, None, None, 128213.0, 131729.0, May 14, 2018, 10:59:06 AM, 39546000, Spring, Third, 10, Right, Male, Group A, 87, None, None, None
256, 45ede1d54690874223a33cdcad56235f, ADMIN-UCSF-la120, 41, Some airplanes fly at a very high altitude., Reading Comprehension, NO, YES, 2281.0, None, None, None, None, None, 132730.0, 135012.0, May 14, 2018, 10:59:09 AM, 39549000, Spring, Third, 10, Right, Male, Group A, 87, None, None, None
257, 45ede1d54690874223a33cdcad56235f, ADMIN-UCSF-la120, 42, If you win a million dollars you will be dejected., Reading Comprehension, NO, NO, 3536.0, None, None, None, None, None, 136014.0, 139553.0, May 14, 2018, 10:59:13 AM, 39553000, Spring, Third, 10, Right, Male, Group A, 87, None, None, None
258, 45ede1d54690874223a33cdcad56235f, ADMIN-UCSF-la120, 43, An amateur athlete may train after school., Reading Comprehension, YES, YES, 2273.0, None, None, None, None, None, 140554.0, 142830.0, May 14, 2018, 10:59:17 AM, 39557000, Spring, Third, 10, Right, Male, Group A, 87, None, None, None
259, 45ede1d54690874223a33cdcad56235f, ADMIN-UCSF-la120, 44, Too many absences may make it difficult to keep up with your work and get good grades., Reading Comprehension, YES, YES, 2265.0, None, None, None, None, None, 143831.0, 146097.0, May 14, 2018, 10:59:20 AM, 39560000, Spring, Third, 10, Right, Male, Group A, 87, None, None, None
260, 45ede1d54690874223a33cdcad56235f, ADMIN-UCSF-la120, 45, If you are careless when doing work you can make mistakes., Reading Comprehension, YES, YES, 1797.0, None, None, None, None, None, 147099.0, 148897.0, May 14, 2018, 10:59:23 AM, 39563000, Spring, Third, 10, Right, Male, Group A, 87, None, None, None
261, 45ede1d54690874223a33cdcad56235f, ADMIN-UCSF-la120, 46, A doctor spends most of her time examining rocks and comets., Reading Comprehension, YES, NO, 1618.0, None, None, None, None, None, 149899.0, 151518.0, May 14, 2018, 10:59:25 AM, 39565000, Spring, Third, 10, Right, Male, Group A, 87, None, None, None
262, 45ede1d54690874223a33cdcad56235f, ADMIN-UCSF-la120, 47, Firecrackers are good to eat for dinner., Reading Comprehension, YES, NO, 2176.0, None, None, None, None, None, 152520.0, 154696.0, May 14, 2018, 10:59:28 AM, 39568000, Spring, Third, 10, Right, Male, Group A, 87, None, None, None
263, 45ede1d54690874223a33cdcad56235f, ADMIN-UCSF-la120, 48, If you win an award you should acknowledge people who helped you along the way., Reading Comprehension, NO, YES, 4015.0, None, None, None, None, None, 155698.0, 159714.0, May 14, 2018, 10:59:34 AM, 39574000, Spring, Third, 10, Right, Male, Group A, 87, None, None, None
264, 45ede1d54690874223a33cdcad56235f, ADMIN-UCSF-la120, 49, Fertilizer is used to keep plants from growing., Reading Comprehension, YES, NO, 2448.0, None, None, None, None, None, 160715.0, 163164.0, May 14, 2018, 10:59:37 AM, 39577000, Spring, Third, 10, Right, Male, Group A, 87, None, None, None
265, 45ede1d54690874223a33cdcad56235f, ADMIN-UCSF-la120, 50, A planet that is habitable will support life., Reading Comprehension, YES, YES, 2970.0, None, None, None, None, None, 164166.0, 167138.0, May 14, 2018, 10:59:41 AM, 39581000, Spring, Third, 10, Right, Male, Group A, 87, None, None, None
266, 45ede1d54690874223a33cdcad56235f, ADMIN-UCSF-la120, 51, Dynamite is often used in cooking., Reading Comprehension, NO, NO, 2440.0, None, None, None, None, None, 168140.0, 170581.0, May 14, 2018, 10:59:44 AM, 39584000, Spring, Third, 10, Right, Male, Group A, 87, None, None, None
267, 45ede1d54690874223a33cdcad56235f, ADMIN-UCSF-la120, 52, Frost can appear on a vehicle if the climate is extremely cold., Reading Comprehension, YES, YES, 3064.0, None, None, None, None, None, 171583.0, 174648.0, May 14, 2018, 10:59:48 AM, 39588000, Spring, Third, 10, Right, Male, Group A, 87, None, None, None
268, 45ede1d54690874223a33cdcad56235f, ADMIN-UCSF-la120, 53, An assertive girl is likely to say what she really thinks rather than keep quiet., Reading Comprehension, YES, YES, 2399.0, None, None, None, None, None, 175650.0, 178050.0, May 14, 2018, 10:59:52 AM, 39592000, Spring, Third, 10, Right, Male, Group A, 87, None, None, None
269, 45ede1d54690874223a33cdcad56235f, ADMIN-UCSF-la120, 0, matchOne_none_20, Relational Matching One, NO, NO, 2268.0, None, None, None, None, None, 0.0, 2268.0, May 14, 2018, 11:02:14 AM, 39734000, Spring, Third, 10, Right, Male, Group A, 87, None, None, None
270, 45ede1d54690874223a33cdcad56235f, ADMIN-UCSF-la120, 1, matchOne_none_05, Relational Matching One, YES, NO, 1297.0, None, None, None, None, None, 3277.0, 4587.0, May 14, 2018, 11:02:16 AM, 39736000, Spring, Third, 10, Right, Male, Group A, 87, None, None, None
271, 45ede1d54690874223a33cdcad56235f, ADMIN-UCSF-la120, 2, matchOne_shape_06, Relational Matching One, NO, YES, 1864.0, None, None, None, None, None, 5593.0, 7458.0, May 14, 2018, 11:02:19 AM, 39739000, Spring, Third, 10, Right, Male, Group A, 87, None, None, None
272, 45ede1d54690874223a33cdcad56235f, ADMIN-UCSF-la120, 3, matchOne_none_17, Relational Matching One, NO, NO, 1998.0, None, None, None, None, None, 8460.0, 10460.0, May 14, 2018, 11:02:22 AM, 39742000, Spring, Third, 10, Right, Male, Group A, 87, None, None, None
273, 45ede1d54690874223a33cdcad56235f, ADMIN-UCSF-la120, 4, matchOne_color_01, Relational Matching One, YES, YES, 2177.0, None, None, None, None, None, 11463.0, 13641.0, May 14, 2018, 11:02:25 AM, 39745000, Spring, Third, 10, Right, Male, Group A, 87, None, None, None
274, 45ede1d54690874223a33cdcad56235f, ADMIN-UCSF-la120, 5, matchOne_color_16, Relational Matching One, YES, YES, 2342.0, None, None, None, None, None, 14648.0, 16991.0, May 14, 2018, 11:02:29 AM, 39749000, Spring, Third, 10, Right, Male, Group A, 87, None, None, None
275, 45ede1d54690874223a33cdcad56235f, ADMIN-UCSF-la120, 6, matchOne_shape_11, Relational Matching One, NO, YES, 2506.0, None, None, None, None, None, 18002.0, 20508.0, May 14, 2018, 11:02:32 AM, 39752000, Spring, Third, 10, Right, Male, Group A, 87, None, None, None
276, 45ede1d54690874223a33cdcad56235f, ADMIN-UCSF-la120, 7, matchOne_none_19, Relational Matching One, NO, NO, 2316.0, None, None, None, None, None, 21511.0, 23828.0, May 14, 2018, 11:02:36 AM, 39756000, Spring, Third, 10, Right, Male, Group A, 87, None, None, None
277, 45ede1d54690874223a33cdcad56235f, ADMIN-UCSF-la120, 8, matchOne_none_26, Relational Matching One, NO, NO, 1844.0, None, None, None, None, None, 24832.0, 26677.0, May 14, 2018, 11:02:38 AM, 39758000, Spring, Third, 10, Right, Male, Group A, 87, None, None, None
278, 45ede1d54690874223a33cdcad56235f, ADMIN-UCSF-la120, 9, matchOne_none_21, Relational Matching One, NO, NO, 1658.0, None, None, None, None, None, 27683.0, 29342.0, May 14, 2018, 11:02:41 AM, 39761000, Spring, Third, 10, Right, Male, Group A, 87, None, None, None
279, 45ede1d54690874223a33cdcad56235f, ADMIN-UCSF-la120, 10, matchOne_shape_15, Relational Matching One, NO, YES, 1428.0, None, None, None, None, None, 30349.0, 31778.0, May 14, 2018, 11:02:43 AM, 39763000, Spring, Third, 10, Right, Male, Group A, 87, None, None, None
280, 45ede1d54690874223a33cdcad56235f, ADMIN-UCSF-la120, 11, matchOne_none_08, Relational Matching One, NO, NO, 1090.0, None, None, None, None, None, 32785.0, 33877.0, May 14, 2018, 11:02:46 AM, 39766000, Spring, Third, 10, Right, Male, Group A, 87, None, None, None
281, 45ede1d54690874223a33cdcad56235f, ADMIN-UCSF-la120, 12, matchOne_none_13, Relational Matching One, YES, NO, 1110.0, None, None, None, None, None, 34883.0, 35994.0, May 14, 2018, 11:02:48 AM, 39768000, Spring, Third, 10, Right, Male, Group A, 87, None, None, None
282, 45ede1d54690874223a33cdcad56235f, ADMIN-UCSF-la120, 13, matchOne_shape_02, Relational Matching One, YES, YES, 2047.0, None, None, None, None, None, 36996.0, 39044.0, May 14, 2018, 11:02:51 AM, 39771000, Spring, Third, 10, Right, Male, Group A, 87, None, None, None
283, 45ede1d54690874223a33cdcad56235f, ADMIN-UCSF-la120, 14, matchOne_color_12, Relational Matching One, YES, YES, 1109.0, None, None, None, None, None, 40050.0, 41160.0, May 14, 2018, 11:02:53 AM, 39773000, Spring, Third, 10, Right, Male, Group A, 87, None, None, None
284, 45ede1d54690874223a33cdcad56235f, ADMIN-UCSF-la120, 15, matchOne_color_24, Relational Matching One, NO, YES, 1410.0, None, None, None, None, None, 42167.0, 43577.0, May 14, 2018, 11:02:55 AM, 39775000, Spring, Third, 10, Right, Male, Group A, 87, None, None, None
285, 45ede1d54690874223a33cdcad56235f, ADMIN-UCSF-la120, 16, matchOne_shape_12, Relational Matching One, YES, YES, 1358.0, None, None, None, None, None, 44586.0, 45945.0, May 14, 2018, 11:02:58 AM, 39778000, Spring, Third, 10, Right, Male, Group A, 87, None, None, None
286, 45ede1d54690874223a33cdcad56235f, ADMIN-UCSF-la120, 17, matchOne_shape_08, Relational Matching One, NO, YES, 1675.0, None, None, None, None, None, 46951.0, 48627.0, May 14, 2018, 11:03:00 AM, 39780000, Spring, Third, 10, Right, Male, Group A, 87, None, None, None
287, 45ede1d54690874223a33cdcad56235f, ADMIN-UCSF-la120, 18, matchOne_color_10, Relational Matching One, YES, YES, 1231.0, None, None, None, None, None, 49630.0, 50861.0, May 14, 2018, 11:03:03 AM, 39783000, Spring, Third, 10, Right, Male, Group A, 87, None, None, None
288, 45ede1d54690874223a33cdcad56235f, ADMIN-UCSF-la120, 19, matchOne_color_13, Relational Matching One, YES, YES, 1008.0, None, None, None, None, None, 51869.0, 52878.0, May 14, 2018, 11:03:05 AM, 39785000, Spring, Third, 10, Right, Male, Group A, 87, None, None, None
289, 45ede1d54690874223a33cdcad56235f, ADMIN-UCSF-la120, 20, matchOne_none_10, Relational Matching One, YES, NO, 1910.0, None, None, None, None, None, 53884.0, 55795.0, May 14, 2018, 11:03:07 AM, 39787000, Spring, Third, 10, Right, Male, Group A, 87, None, None, None
290, 45ede1d54690874223a33cdcad56235f, ADMIN-UCSF-la120, 21, matchOne_none_04, Relational Matching One, NO, NO, 2308.0, None, None, None, None, None, 56802.0, 59111.0, May 14, 2018, 11:03:11 AM, 39791000, Spring, Third, 10, Right, Male, Group A, 87, None, None, None
291, 45ede1d54690874223a33cdcad56235f, ADMIN-UCSF-la120, 22, matchOne_none_14, Relational Matching One, NO, NO, 1843.0, None, None, None, None, None, 60118.0, 61963.0, May 14, 2018, 11:03:14 AM, 39794000, Spring, Third, 10, Right, Male, Group A, 87, None, None, None
291, 45ede1d54690874223a33cdcad56235f, ADMIN-UCSF-la120, 0, 7versus8, Fractions Lvl 1, Right side, Right side, 2265.0, None, None, None, None, None, 0.0, 2267.0, May 14, 2018, 11:09:06 AM, 40146000, Spring, Third, 10, Right, Male, Group A, 87, None, None, None
292, 45ede1d54690874223a33cdcad56235f, ADMIN-UCSF-la120, 1, 2versus1, Fractions Lvl 1, Left side, Left side, 793.0, None, None, None, None, None, 3269.0, 4063.0, May 14, 2018, 11:09:07 AM, 40147000, Spring, Third, 10, Right, Male, Group A, 87, None, None, None
293, 45ede1d54690874223a33cdcad56235f, ADMIN-UCSF-la120, 2, 4versus3, Fractions Lvl 1, Right side, Left side, 632.0, None, None, None, None, None, 5065.0, 5699.0, May 14, 2018, 11:09:09 AM, 40149000, Spring, Third, 10, Right, Male, Group A, 87, None, None, None
294, 45ede1d54690874223a33cdcad56235f, ADMIN-UCSF-la120, 3, 6versus5, Fractions Lvl 1, Left side, Left side, 962.0, None, None, None, None, None, 6701.0, 7664.0, May 14, 2018, 11:09:11 AM, 40151000, Spring, Third, 10, Right, Male, Group A, 87, None, None, None
295, 45ede1d54690874223a33cdcad56235f, ADMIN-UCSF-la120, 4, 6versus7, Fractions Lvl 1, Left side, Right side, 1049.0, None, None, None, None, None, 8666.0, 9716.0, May 14, 2018, 11:09:13 AM, 40153000, Spring, Third, 10, Right, Male, Group A, 87, None, None, None
296, 45ede1d54690874223a33cdcad56235f, ADMIN-UCSF-la120, 5, 1versus2, Fractions Lvl 1, Right side, Right side, 1297.0, None, None, None, None, None, 10718.0, 12016.0, May 14, 2018, 11:09:15 AM, 40155000, Spring, Third, 10, Right, Male, Group A, 87, None, None, None
297, 45ede1d54690874223a33cdcad56235f, ADMIN-UCSF-la120, 6, 3versus4, Fractions Lvl 1, Right side, Right side, 1262.0, None, None, None, None, None, 13019.0, 14282.0, May 14, 2018, 11:09:18 AM, 40158000, Spring, Third, 10, Right, Male, Group A, 87, None, None, None
298, 45ede1d54690874223a33cdcad56235f, ADMIN-UCSF-la120, 7, 9versus8, Fractions Lvl 1, Left side, Left side, 1114.0, None, None, None, None, None, 15284.0, 16399.0, May 14, 2018, 11:09:20 AM, 40160000, Spring, Third, 10, Right, Male, Group A, 87, None, None, None
299, 45ede1d54690874223a33cdcad56235f, ADMIN-UCSF-la120, 8, 8versus9, Fractions Lvl 1, Right side, Right side, 1094.0, None, None, None, None, None, 17401.0, 18496.0, May 14, 2018, 11:09:22 AM, 40162000, Spring, Third, 10, Right, Male, Group A, 87, None, None, None
300, 45ede1d54690874223a33cdcad56235f, ADMIN-UCSF-la120, 9, 7versus8, Fractions Lvl 1, Right side, Right side, 1168.0, None, None, None, None, None, 19498.0, 20666.0, May 14, 2018, 11:09:24 AM, 40164000, Spring, Third, 10, Right, Male, Group A, 87, None, None, None
301, 45ede1d54690874223a33cdcad56235f, ADMIN-UCSF-la120, 10, 1versus2, Fractions Lvl 1, Right side, Right side, 697.0, None, None, None, None, None, 21668.0, 22366.0, May 14, 2018, 11:09:26 AM, 40166000, Spring, Third, 10, Right, Male, Group A, 87, None, None, None
302, 45ede1d54690874223a33cdcad56235f, ADMIN-UCSF-la120, 11, 7versus6, Fractions Lvl 1, Left side, Left side, 1764.0, None, None, None, None, None, 23368.0, 25133.0, May 14, 2018, 11:09:28 AM, 40168000, Spring, Third, 10, Right, Male, Group A, 87, None, None, None
303, 45ede1d54690874223a33cdcad56235f, ADMIN-UCSF-la120, 12, 5versus6, Fractions Lvl 1, Right side, Right side, 1129.0, None, None, None, None, None, 26135.0, 27265.0, May 14, 2018, 11:09:31 AM, 40171000, Spring, Third, 10, Right, Male, Group A, 87, None, None, None
304, 45ede1d54690874223a33cdcad56235f, ADMIN-UCSF-la120, 13, 2versus1, Fractions Lvl 1, Left side, Left side, 1181.0, None, None, None, None, None, 28267.0, 29449.0, May 14, 2018, 11:09:33 AM, 40173000, Spring, Third, 10, Right, Male, Group A, 87, None, None, None
305, 45ede1d54690874223a33cdcad56235f, ADMIN-UCSF-la120, 14, 3versus4, Fractions Lvl 1, Right side, Right side, 815.0, None, None, None, None, None, 30451.0, 31267.0, May 14, 2018, 11:09:35 AM, 40175000, Spring, Third, 10, Right, Male, Group A, 87, None, None, None
306, 45ede1d54690874223a33cdcad56235f, ADMIN-UCSF-la120, 15, 6versus7, Fractions Lvl 1, Right side, Right side, 934.0, None, None, None, None, None, 32269.0, 33203.0, May 14, 2018, 11:09:36 AM, 40176000, Spring, Third, 10, Right, Male, Group A, 87, None, None, None
307, 45ede1d54690874223a33cdcad56235f, ADMIN-UCSF-la120, 16, 3versus2, Fractions Lvl 1, Left side, Left side, 1062.0, None, None, None, None, None, 34205.0, 35268.0, May 14, 2018, 11:09:39 AM, 40179000, Spring, Third, 10, Right, Male, Group A, 87, None, None, None
308, 45ede1d54690874223a33cdcad56235f, ADMIN-UCSF-la120, 17, 7versus6, Fractions Lvl 1, Left side, Left side, 1865.0, None, None, None, None, None, 36270.0, 38136.0, May 14, 2018, 11:09:41 AM, 40181000, Spring, Third, 10, Right, Male, Group A, 87, None, None, None
309, 45ede1d54690874223a33cdcad56235f, ADMIN-UCSF-la120, 18, 9versus8, Fractions Lvl 1, Left side, Left side, 1545.0, None, None, None, None, None, 39139.0, 40684.0, May 14, 2018, 11:09:44 AM, 40184000, Spring, Third, 10, Right, Male, Group A, 87, None, None, None
310, 45ede1d54690874223a33cdcad56235f, ADMIN-UCSF-la120, 19, 4versus5, Fractions Lvl 1, No Answer, Right side, 3002.0, None, None, None, None, None, 41687.0, 44689.0, May 14, 2018, 11:09:48 AM, 40188000, Spring, Third, 10, Right, Male, Group A, 87, None, None, None
311, 45ede1d54690874223a33cdcad56235f, ADMIN-UCSF-la120, 20, 5versus6, Fractions Lvl 1, Right side, Right side, 1308.0, None, None, None, None, None, 45693.0, 47002.0, May 14, 2018, 11:09:50 AM, 40190000, Spring, Third, 10, Right, Male, Group A, 87, None, None, None
312, 45ede1d54690874223a33cdcad56235f, ADMIN-UCSF-la120, 21, 4versus5, Fractions Lvl 1, Right side, Right side, 980.0, None, None, None, None, None, 48004.0, 48985.0, May 14, 2018, 11:09:52 AM, 40192000, Spring, Third, 10, Right, Male, Group A, 87, None, None, None
313, 45ede1d54690874223a33cdcad56235f, ADMIN-UCSF-la120, 22, 2versus3, Fractions Lvl 1, Right side, Right side, 1131.0, None, None, None, None, None, 49987.0, 51119.0, May 14, 2018, 11:09:54 AM, 40194000, Spring, Third, 10, Right, Male, Group A, 87, None, None, None
314, 45ede1d54690874223a33cdcad56235f, ADMIN-UCSF-la120, 23, 8versus7, Fractions Lvl 1, Left side, Left side, 1415.0, None, None, None, None, None, 52122.0, 53538.0, May 14, 2018, 11:09:57 AM, 40197000, Spring, Third, 10, Right, Male, Group A, 87, None, None, None
315, 45ede1d54690874223a33cdcad56235f, ADMIN-UCSF-la120, 24, 5versus4, Fractions Lvl 1, Left side, Left side, 1830.0, None, None, None, None, None, 54539.0, 56370.0, May 14, 2018, 11:10:00 AM, 40200000, Spring, Third, 10, Right, Male, Group A, 87, None, None, None
316, 45ede1d54690874223a33cdcad56235f, ADMIN-UCSF-la120, 25, 6versus5, Fractions Lvl 1, Right side, Left side, 1298.0, None, None, None, None, None, 57372.0, 58671.0, May 14, 2018, 11:10:02 AM, 40202000, Spring, Third, 10, Right, Male, Group A, 87, None, None, None
317, 45ede1d54690874223a33cdcad56235f, ADMIN-UCSF-la120, 26, 2versus3, Fractions Lvl 1, Right side, Right side, 1730.0, None, None, None, None, None, 59673.0, 61404.0, May 14, 2018, 11:10:05 AM, 40205000, Spring, Third, 10, Right, Male, Group A, 87, None, None, None
318, 45ede1d54690874223a33cdcad56235f, ADMIN-UCSF-la120, 27, 5versus4, Fractions Lvl 1, Left side, Left side, 813.0, None, None, None, None, None, 62406.0, 63220.0, May 14, 2018, 11:10:07 AM, 40207000, Spring, Third, 10, Right, Male, Group A, 87, None, None, None
319, 45ede1d54690874223a33cdcad56235f, ADMIN-UCSF-la120, 28, 8versus9, Fractions Lvl 1, Right side, Right side, 763.0, None, None, None, None, None, 64222.0, 64986.0, May 14, 2018, 11:10:08 AM, 40208000, Spring, Third, 10, Right, Male, Group A, 87, None, None, None
320, 45ede1d54690874223a33cdcad56235f, ADMIN-UCSF-la120, 29, 4versus3, Fractions Lvl 1, Left side, Left side, 879.0, None, None, None, None, None, 65988.0, 66869.0, May 14, 2018, 11:10:10 AM, 40210000, Spring, Third, 10, Right, Male, Group A, 87, None, None, None
321, 45ede1d54690874223a33cdcad56235f, ADMIN-UCSF-la120, 30, 8versus7, Fractions Lvl 1, Right side, Left side, 814.0, None, None, None, None, None, 67871.0, 68687.0, May 14, 2018, 11:10:12 AM, 40212000, Spring, Third, 10, Right, Male, Group A, 87, None, None, None
322, 45ede1d54690874223a33cdcad56235f, ADMIN-UCSF-la120, 31, 3versus2, Fractions Lvl 1, Left side, Left side, 1130.0, None, None, None, None, None, 69689.0, 70819.0, May 14, 2018, 11:10:14 AM, 40214000, Spring, Third, 10, Right, Male, Group A, 87, None, None, None
322, 45ede1d54690874223a33cdcad56235f, ADMIN-UCSF-la120, 0, fraction7/9vs8/9, Fractions Lvl 2, Right side, Right side, 3181.0, None, None, None, None, None, 0.0, 3181.0, May 14, 2018, 11:10:28 AM, 40228000, Spring, Third, 10, Right, Male, Group A, 87, None, None, None
323, 45ede1d54690874223a33cdcad56235f, ADMIN-UCSF-la120, 1, fraction5/8vs5/7, Fractions Lvl 2, Left side, Right side, 3063.0, None, None, None, None, None, 4197.0, 7261.0, May 14, 2018, 11:10:32 AM, 40232000, Spring, Third, 10, Right, Male, Group A, 87, None, None, None
324, 45ede1d54690874223a33cdcad56235f, ADMIN-UCSF-la120, 2, fraction7/9vs7/8, Fractions Lvl 2, Right side, Right side, 2505.0, None, None, None, None, None, 8275.0, 10781.0, May 14, 2018, 11:10:36 AM, 40236000, Spring, Third, 10, Right, Male, Group A, 87, None, None, None
325, 45ede1d54690874223a33cdcad56235f, ADMIN-UCSF-la120, 3, fraction3/4vs3/7, Fractions Lvl 2, Left side, Left side, 1940.0, None, None, None, None, None, 11800.0, 13741.0, May 14, 2018, 11:10:38 AM, 40239000, Spring, Third, 10, Right, Male, Group A, 87, None, None, None
326, 45ede1d54690874223a33cdcad56235f, ADMIN-UCSF-la120, 4, fraction3/8vs3/7, Fractions Lvl 2, Right side, Right side, 2986.0, None, None, None, None, None, 14752.0, 17739.0, May 14, 2018, 11:10:42 AM, 40242000, Spring, Third, 10, Right, Male, Group A, 87, None, None, None
327, 45ede1d54690874223a33cdcad56235f, ADMIN-UCSF-la120, 5, fraction5/7vs2/7, Fractions Lvl 2, Left side, Left side, 3551.0, None, None, None, None, None, 18749.0, 22301.0, May 14, 2018, 11:10:47 AM, 40247000, Spring, Third, 10, Right, Male, Group A, 87, None, None, None
328, 45ede1d54690874223a33cdcad56235f, ADMIN-UCSF-la120, 6, fraction5/6vs5/9, Fractions Lvl 2, No Answer, Left side, 4511.0, None, None, None, None, None, 23311.0, 27823.0, May 14, 2018, 11:10:53 AM, 40253000, Spring, Third, 10, Right, Male, Group A, 87, None, None, None
329, 45ede1d54690874223a33cdcad56235f, ADMIN-UCSF-la120, 7, fraction5/9vs2/9, Fractions Lvl 2, Left side, Left side, 3427.0, None, None, None, None, None, 28833.0, 32261.0, May 14, 2018, 11:10:57 AM, 40257000, Spring, Third, 10, Right, Male, Group A, 87, None, None, None
330, 45ede1d54690874223a33cdcad56235f, ADMIN-UCSF-la120, 8, fraction2/7vs3/7, Fractions Lvl 2, Right side, Right side, 2008.0, None, None, None, None, None, 33273.0, 35282.0, May 14, 2018, 11:11:00 AM, 40260000, Spring, Third, 10, Right, Male, Group A, 87, None, None, None
331, 45ede1d54690874223a33cdcad56235f, ADMIN-UCSF-la120, 9, fraction1/4vs1/7, Fractions Lvl 2, Right side, Left side, 2835.0, None, None, None, None, None, 36294.0, 39131.0, May 14, 2018, 11:11:04 AM, 40264000, Spring, Third, 10, Right, Male, Group A, 87, None, None, None
332, 45ede1d54690874223a33cdcad56235f, ADMIN-UCSF-la120, 10, fraction4/9vs5/9, Fractions Lvl 2, Right side, Right side, 2288.0, None, None, None, None, None, 40141.0, 42431.0, May 14, 2018, 11:11:07 AM, 40267000, Spring, Third, 10, Right, Male, Group A, 87, None, None, None
333, 45ede1d54690874223a33cdcad56235f, ADMIN-UCSF-la120, 11, fraction6/7vs3/7, Fractions Lvl 2, Left side, Left side, 1935.0, None, None, None, None, None, 43444.0, 45381.0, May 14, 2018, 11:11:10 AM, 40270000, Spring, Third, 10, Right, Male, Group A, 87, None, None, None
334, 45ede1d54690874223a33cdcad56235f, ADMIN-UCSF-la120, 12, fraction7/9vs4/9, Fractions Lvl 2, Left side, Left side, 3607.0, None, None, None, None, None, 46392.0, 50000.0, May 14, 2018, 11:11:15 AM, 40275000, Spring, Third, 10, Right, Male, Group A, 87, None, None, None
335, 45ede1d54690874223a33cdcad56235f, ADMIN-UCSF-la120, 13, fraction5/7vs6/7, Fractions Lvl 2, Right side, Right side, 3576.0, None, None, None, None, None, 51011.0, 54587.0, May 14, 2018, 11:11:19 AM, 40279000, Spring, Third, 10, Right, Male, Group A, 87, None, None, None
336, 45ede1d54690874223a33cdcad56235f, ADMIN-UCSF-la120, 14, fraction5/9vs5/8, Fractions Lvl 2, Right side, Right side, 3801.0, None, None, None, None, None, 55598.0, 59401.0, May 14, 2018, 11:11:24 AM, 40284000, Spring, Third, 10, Right, Male, Group A, 87, None, None, None
337, 45ede1d54690874223a33cdcad56235f, ADMIN-UCSF-la120, 15, fraction3/5vs3/8, Fractions Lvl 2, Right side, Left side, 2988.0, None, None, None, None, None, 60411.0, 63400.0, May 14, 2018, 11:11:28 AM, 40288000, Spring, Third, 10, Right, Male, Group A, 87, None, None, None
337, 45ede1d54690874223a33cdcad56235f, ADMIN-UCSF-la120, 0, fraction3/4vs5/7, Fractions Lvl 3, Left side, Left side, 3015.0, None, None, None, None, None, 0.0, 3015.0, May 14, 2018, 11:11:35 AM, 40295000, Spring, Third, 10, Right, Male, Group A, 87, None, None, None
338, 45ede1d54690874223a33cdcad56235f, ADMIN-UCSF-la120, 1, fraction3/9vs2/7, Fractions Lvl 3, Right side, Left side, 1568.0, None, None, None, None, None, 4025.0, 5594.0, May 14, 2018, 11:11:37 AM, 40297000, Spring, Third, 10, Right, Male, Group A, 87, None, None, None
339, 45ede1d54690874223a33cdcad56235f, ADMIN-UCSF-la120, 2, fraction2/3vs5/9, Fractions Lvl 3, Left side, Left side, 3620.0, None, None, None, None, None, 6605.0, 10225.0, May 14, 2018, 11:11:42 AM, 40302000, Spring, Third, 10, Right, Male, Group A, 87, None, None, None
340, 45ede1d54690874223a33cdcad56235f, ADMIN-UCSF-la120, 3, fraction2/5vs5/8, Fractions Lvl 3, Right side, Right side, 2494.0, None, None, None, None, None, 11237.0, 13733.0, May 14, 2018, 11:11:45 AM, 40305000, Spring, Third, 10, Right, Male, Group A, 87, None, None, None
341, 45ede1d54690874223a33cdcad56235f, ADMIN-UCSF-la120, 4, fraction3/4vs5/6, Fractions Lvl 3, Left side, Right side, 2336.0, None, None, None, None, None, 14744.0, 17080.0, May 14, 2018, 11:11:49 AM, 40309000, Spring, Third, 10, Right, Male, Group A, 87, None, None, None
342, 45ede1d54690874223a33cdcad56235f, ADMIN-UCSF-la120, 5, fraction3/4vs4/7, Fractions Lvl 3, Left side, Left side, 3168.0, None, None, None, None, None, 18091.0, 21260.0, May 14, 2018, 11:11:53 AM, 40313000, Spring, Third, 10, Right, Male, Group A, 87, None, None, None
343, 45ede1d54690874223a33cdcad56235f, ADMIN-UCSF-la120, 6, fraction3/7vs4/8, Fractions Lvl 3, Right side, Right side, 2861.0, None, None, None, None, None, 22271.0, 25133.0, May 14, 2018, 11:11:57 AM, 40317000, Spring, Third, 10, Right, Male, Group A, 87, None, None, None
344, 45ede1d54690874223a33cdcad56235f, ADMIN-UCSF-la120, 7, fraction2/4vs4/9, Fractions Lvl 3, Right side, Left side, 1886.0, None, None, None, None, None, 26143.0, 28030.0, May 14, 2018, 11:12:00 AM, 40320000, Spring, Third, 10, Right, Male, Group A, 87, None, None, None
345, 45ede1d54690874223a33cdcad56235f, ADMIN-UCSF-la120, 8, fraction5/9vs2/3, Fractions Lvl 3, Left side, Right side, 789.0, None, None, None, None, None, 29042.0, 29832.0, May 14, 2018, 11:12:01 AM, 40321000, Spring, Third, 10, Right, Male, Group A, 87, None, None, None
346, 45ede1d54690874223a33cdcad56235f, ADMIN-UCSF-la120, 9, fraction2/7vs3/9, Fractions Lvl 3, Right side, Right side, 417.0, None, None, None, None, None, 30843.0, 31261.0, May 14, 2018, 11:12:03 AM, 40323000, Spring, Third, 10, Right, Male, Group A, 87, None, None, None
347, 45ede1d54690874223a33cdcad56235f, ADMIN-UCSF-la120, 10, fraction4/8vs3/7, Fractions Lvl 3, Left side, Left side, 702.0, None, None, None, None, None, 32272.0, 32976.0, May 14, 2018, 11:12:04 AM, 40324000, Spring, Third, 10, Right, Male, Group A, 87, None, None, None
348, 45ede1d54690874223a33cdcad56235f, ADMIN-UCSF-la120, 11, fraction4/9vs2/4, Fractions Lvl 3, Left side, Right side, 622.0, None, None, None, None, None, 33989.0, 34612.0, May 14, 2018, 11:12:06 AM, 40326000, Spring, Third, 10, Right, Male, Group A, 87, None, None, None
349, 45ede1d54690874223a33cdcad56235f, ADMIN-UCSF-la120, 12, fraction6/9vs4/5, Fractions Lvl 3, Right side, Right side, 2619.0, None, None, None, None, None, 35622.0, 38242.0, May 14, 2018, 11:12:10 AM, 40330000, Spring, Third, 10, Right, Male, Group A, 87, None, None, None
350, 45ede1d54690874223a33cdcad56235f, ADMIN-UCSF-la120, 13, fraction4/5vs6/9, Fractions Lvl 3, Left side, Left side, 1926.0, None, None, None, None, None, 39255.0, 41182.0, May 14, 2018, 11:12:13 AM, 40333000, Spring, Third, 10, Right, Male, Group A, 87, None, None, None
351, 45ede1d54690874223a33cdcad56235f, ADMIN-UCSF-la120, 14, fraction5/7vs3/4, Fractions Lvl 3, Right side, Right side, 2658.0, None, None, None, None, None, 42192.0, 44851.0, May 14, 2018, 11:12:16 AM, 40336000, Spring, Third, 10, Right, Male, Group A, 87, None, None, None
352, 45ede1d54690874223a33cdcad56235f, ADMIN-UCSF-la120, 15, fraction4/7vs3/4, Fractions Lvl 3, Right side, Right side, 2076.0, None, None, None, None, None, 45864.0, 47941.0, May 14, 2018, 11:12:19 AM, 40339000, Spring, Third, 10, Right, Male, Group A, 87, None, None, None
353, 45ede1d54690874223a33cdcad56235f, ADMIN-UCSF-la120, 16, fraction2/6vs3/7, Fractions Lvl 3, Right side, Left side, 1043.0, None, None, None, None, None, 48954.0, 49997.0, May 14, 2018, 11:12:22 AM, 40342000, Spring, Third, 10, Right, Male, Group A, 87, None, None, None
354, 45ede1d54690874223a33cdcad56235f, ADMIN-UCSF-la120, 17, fraction3/7vs2/6, Fractions Lvl 3, Left side, Right side, 598.0, None, None, None, None, None, 51008.0, 51607.0, May 14, 2018, 11:12:23 AM, 40343000, Spring, Third, 10, Right, Male, Group A, 87, None, None, None
355, 45ede1d54690874223a33cdcad56235f, ADMIN-UCSF-la120, 18, fraction5/8vs2/5, Fractions Lvl 3, Right side, Left side, 565.0, None, None, None, None, None, 52621.0, 53187.0, May 14, 2018, 11:12:25 AM, 40345000, Spring, Third, 10, Right, Male, Group A, 87, None, None, None
356, 45ede1d54690874223a33cdcad56235f, ADMIN-UCSF-la120, 19, fraction5/6vs3/4, Fractions Lvl 3, Right side, Left side, 519.0, None, None, None, None, None, 54197.0, 54717.0, May 14, 2018, 11:12:26 AM, 40346000, Spring, Third, 10, Right, Male, Group A, 87, None, None, None
0, a9311b41bf709417fde687a8e9395ec9, ADMIN-UCSF-pe051, 0, 5 + 4 = 21, Arithmetic Verification, False, false, 1285.0, None, None, None, None, None, 0.0, 1287.0, May 18, 2018, 9:05:37 AM, 32737000, Spring, Seventh, 14, Right, Male, Group A, 87, None, 2b, None
1, a9311b41bf709417fde687a8e9395ec9, ADMIN-UCSF-pe051, 1, 2 + 6 = 8, Arithmetic Verification, True, true, 959.0, None, None, None, None, None, 2039.0, 2999.0, May 18, 2018, 9:05:39 AM, 32739000, Spring, Seventh, 14, Right, Male, Group A, 87, None, 2b, None
2, a9311b41bf709417fde687a8e9395ec9, ADMIN-UCSF-pe051, 2, 6 + 2 = 13, Arithmetic Verification, False, false, 1048.0, None, None, None, None, None, 3751.0, 4800.0, May 18, 2018, 9:05:41 AM, 32741000, Spring, Seventh, 14, Right, Male, Group A, 87, None, 2b, None
3, a9311b41bf709417fde687a8e9395ec9, ADMIN-UCSF-pe051, 3, 3 + 5 = 15, Arithmetic Verification, False, false, 1149.0, None, None, None, None, None, 5551.0, 6701.0, May 18, 2018, 9:05:43 AM, 32743000, Spring, Seventh, 14, Right, Male, Group A, 87, None, 2b, None
4, a9311b41bf709417fde687a8e9395ec9, ADMIN-UCSF-pe051, 4, 2 + 4 = 10, Arithmetic Verification, False, false, 1330.0, None, None, None, None, None, 7453.0, 8785.0, May 18, 2018, 9:05:45 AM, 32745000, Spring, Seventh, 14, Right, Male, Group A, 87, None, 2b, None
5, a9311b41bf709417fde687a8e9395ec9, ADMIN-UCSF-pe051, 5, 5 + 6 = 11, Arithmetic Verification, True, true, 1161.0, None, None, None, None, None, 9538.0, 10700.0, May 18, 2018, 9:05:47 AM, 32747000, Spring, Seventh, 14, Right, Male, Group A, 87, None, 2b, None
6, a9311b41bf709417fde687a8e9395ec9, ADMIN-UCSF-pe051, 6, 4 + 2 = 8, Arithmetic Verification, False, false, 1263.0, None, None, None, None, None, 11452.0, 12717.0, May 18, 2018, 9:05:49 AM, 32749000, Spring, Seventh, 14, Right, Male, Group A, 87, None, 2b, None
