Trial ID, Session ID, User ID, Question ID, Question Text, Question Type, User Answer, Correct Answer, Response Time, Button Response 1, Button Response 2, Button Response 3, Button Response 4, Button Response Submit, Trial Onset, Feedback Onset, Current Date, Current Year, Current Time, Current Time MS, Semester, Grade, Age, Handedness, Gender, SEAGroup, iPad Number, Math Recall Array, Math Verification Array, Math Recall Orientation
0, c5dc1aa1836825642dbfad118ec29d80, ADMIN-UCSF-mk039, 0, 5 + 4 = 21, Arithmetic Verification, False, false, 1638.0, None, None, None, None, None, 0.0, 1639.0, May 12, 2017, 8:56:12 AM, 32172000, Spring, Third, 8, Left, Female, Group B, 70, None, 2b, None
1, c5dc1aa1836825642dbfad118ec29d80, ADMIN-UCSF-mk039, 1, 2 + 6 = 8, Arithmetic Verification, False, true, 1754.0, None, None, None, None, None, 2395.0, 4150.0, May 12, 2017, 8:56:14 AM, 32174000, Spring, Third, 8, Left, Female, Group B, 70, None, 2b, None
2, c5dc1aa1836825642dbfad118ec29d80, ADMIN-UCSF-mk039, 2, 6 + 2 = 13, Arithmetic Verification, False, false, 1184.0, None, None, None, None, None, 4902.0, 6086.0, May 12, 2017, 8:56:16 AM, 32176000, Spring, Third, 8, Left, Female, Group B, 70, None, 2b, None
3, c5dc1aa1836825642dbfad118ec29d80, ADMIN-UCSF-mk039, 3, 3 + 5 = 15, Arithmetic Verification, False, false, 1227.0, None, None, None, None, None, 6838.0, 8066.0, May 12, 2017, 8:56:18 AM, 32178000, Spring, Third, 8, Left, Female, Group B, 70, None, 2b, None
4, c5dc1aa1836825642dbfad118ec29d80, ADMIN-UCSF-mk039, 4, 2 + 4 = 10, Arithmetic Verification, False, false, 1084.0, None, None, None, None, None, 8819.0, 9904.0, May 12, 2017, 8:56:20 AM, 32180000, Spring, Third, 8, Left, Female, Group B, 70, None, 2b, None
5, c5dc1aa1836825642dbfad118ec29d80, ADMIN-UCSF-mk039, 5, 5 + 6 = 11, Arithmetic Verification, True, true, 1126.0, None, None, None, None, None, 10656.0, 11783.0, May 12, 2017, 8:56:22 AM, 32182000, Spring, Third, 8, Left, Female, Group B, 70, None, 2b, None
6, c5dc1aa1836825642dbfad118ec29d80, ADMIN-UCSF-mk039, 6, 4 + 2 = 8, Arithmetic Verification, True, false, 1101.0, None, None, None, None, None, 12536.0, 13638.0, May 12, 2017, 8:56:24 AM, 32184000, Spring, Third, 8, Left, Female, Group B, 70, None, 2b, None
7, c5dc1aa1836825642dbfad118ec29d80, ADMIN-UCSF-mk039, 7, 2 + 3 = 5, Arithmetic Verification, True, true, 1092.0, None, None, None, None, None, 14390.0, 15483.0, May 12, 2017, 8:56:26 AM, 32186000, Spring, Third, 8, Left, Female, Group B, 70, None, 2b, None
8, c5dc1aa1836825642dbfad118ec29d80, ADMIN-UCSF-mk039, 8, 2 + 5 = 7, Arithmetic Verification, False, true, 1031.0, None, None, None, None, None, 16234.0, 17267.0, May 12, 2017, 8:56:28 AM, 32188000, Spring, Third, 8, Left, Female, Group B, 70, None, 2b, None
9, c5dc1aa1836825642dbfad118ec29d80, ADMIN-UCSF-mk039, 9, 2 + 6 = 12, Arithmetic Verification, True, false, 1563.0, None, None, None, None, None, 18019.0, 19584.0, May 12, 2017, 8:56:30 AM, 32190000, Spring, Third, 8, Left, Female, Group B, 70, None, 2b, None
10, c5dc1aa1836825642dbfad118ec29d80, ADMIN-UCSF-mk039, 10, 4 + 3 = 7, Arithmetic Verification, True, true, 1936.0, None, None, None, None, None, 20335.0, 22273.0, May 12, 2017, 8:56:33 AM, 32193000, Spring, Third, 8, Left, Female, Group B, 70, None, 2b, None
11, c5dc1aa1836825642dbfad118ec29d80, ADMIN-UCSF-mk039, 11, 3 + 6 = 9, Arithmetic Verification, True, true, 1279.0, None, None, None, None, None, 23025.0, 24305.0, May 12, 2017, 8:56:35 AM, 32195000, Spring, Third, 8, Left, Female, Group B, 70, None, 2b, None
12, c5dc1aa1836825642dbfad118ec29d80, ADMIN-UCSF-mk039, 12, 5 + 3 = 8, Arithmetic Verification, True, true, 1093.0, None, None, None, None, None, 25057.0, 26151.0, May 12, 2017, 8:56:36 AM, 32196000, Spring, Third, 8, Left, Female, Group B, 70, None, 2b, None
13, c5dc1aa1836825642dbfad118ec29d80, ADMIN-UCSF-mk039, 13, 5 + 3 = 14, Arithmetic Verification, False, false, 1130.0, None, None, None, None, None, 26903.0, 28034.0, May 12, 2017, 8:56:38 AM, 32198000, Spring, Third, 8, Left, Female, Group B, 70, None, 2b, None
14, c5dc1aa1836825642dbfad118ec29d80, ADMIN-UCSF-mk039, 14, 5 + 4 = 20, Arithmetic Verification, False, false, 1297.0, None, None, None, None, None, 28786.0, 30085.0, May 12, 2017, 8:56:40 AM, 32200000, Spring, Third, 8, Left, Female, Group B, 70, None, 2b, None
15, c5dc1aa1836825642dbfad118ec29d80, ADMIN-UCSF-mk039, 15, 4 + 5 = 9, Arithmetic Verification, True, true, 930.0, None, None, None, None, None, 30837.0, 31768.0, May 12, 2017, 8:56:42 AM, 32202000, Spring, Third, 8, Left, Female, Group B, 70, None, 2b, None
16, c5dc1aa1836825642dbfad118ec29d80, ADMIN-UCSF-mk039, 16, 5 + 6 = 30, Arithmetic Verification, False, false, 1170.0, None, None, None, None, None, 32520.0, 33691.0, May 12, 2017, 8:56:44 AM, 32204000, Spring, Third, 8, Left, Female, Group B, 70, None, 2b, None
17, c5dc1aa1836825642dbfad118ec29d80, ADMIN-UCSF-mk039, 17, 5 + 6 = 28, Arithmetic Verification, False, false, 2058.0, None, None, None, None, None, 34443.0, 36502.0, May 12, 2017, 8:56:47 AM, 32207000, Spring, Third, 8, Left, Female, Group B, 70, None, 2b, None
18, c5dc1aa1836825642dbfad118ec29d80, ADMIN-UCSF-mk039, 18, 4 + 2 = 6, Arithmetic Verification, True, true, 1503.0, None, None, None, None, None, 37254.0, 38758.0, May 12, 2017, 8:56:49 AM, 32209000, Spring, Third, 8, Left, Female, Group B, 70, None, 2b, None
19, c5dc1aa1836825642dbfad118ec29d80, ADMIN-UCSF-mk039, 19, 6 + 4 = 10, Arithmetic Verification, True, true, 1113.0, None, None, None, None, None, 39510.0, 40624.0, May 12, 2017, 8:56:51 AM, 32211000, Spring, Third, 8, Left, Female, Group B, 70, None, 2b, None
20, c5dc1aa1836825642dbfad118ec29d80, ADMIN-UCSF-mk039, 20, 2 x 6 = 9, Arithmetic Verification, False, false, 6126.0, None, None, None, None, None, 41376.0, 47503.0, May 12, 2017, 8:56:58 AM, 32218000, Spring, Third, 8, Left, Female, Group B, 70, None, 2b, None
21, c5dc1aa1836825642dbfad118ec29d80, ADMIN-UCSF-mk039, 21, 3 x 2 = 6, Arithmetic Verification, True, true, 798.0, None, None, None, None, None, 48255.0, 49053.0, May 12, 2017, 8:56:59 AM, 32219000, Spring, Third, 8, Left, Female, Group B, 70, None, 2b, None
22, c5dc1aa1836825642dbfad118ec29d80, ADMIN-UCSF-mk039, 22, 4 x 6 = 24, Arithmetic Verification, True, true, 699.0, None, None, None, None, None, 49806.0, 50506.0, May 12, 2017, 8:57:01 AM, 32221000, Spring, Third, 8, Left, Female, Group B, 70, None, 2b, None
23, c5dc1aa1836825642dbfad118ec29d80, ADMIN-UCSF-mk039, 23, 3 x 6 = 18, Arithmetic Verification, True, true, 982.0, None, None, None, None, None, 51258.0, 52241.0, May 12, 2017, 8:57:03 AM, 32223000, Spring, Third, 8, Left, Female, Group B, 70, None, 2b, None
24, c5dc1aa1836825642dbfad118ec29d80, ADMIN-UCSF-mk039, 24, 5 x 4 = 20, Arithmetic Verification, True, true, 1043.0, None, None, None, None, None, 52993.0, 54037.0, May 12, 2017, 8:57:04 AM, 32224000, Spring, Third, 8, Left, Female, Group B, 70, None, 2b, None
25, c5dc1aa1836825642dbfad118ec29d80, ADMIN-UCSF-mk039, 25, 5 x 6 = 11, Arithmetic Verification, True, false, 745.0, None, None, None, None, None, 54790.0, 55536.0, May 12, 2017, 8:57:06 AM, 32226000, Spring, Third, 8, Left, Female, Group B, 70, None, 2b, None
26, c5dc1aa1836825642dbfad118ec29d80, ADMIN-UCSF-mk039, 26, 2 x 4 = 6, Arithmetic Verification, False, false, 1163.0, None, None, None, None, None, 56290.0, 57454.0, May 12, 2017, 8:57:08 AM, 32228000, Spring, Third, 8, Left, Female, Group B, 70, None, 2b, None
27, c5dc1aa1836825642dbfad118ec29d80, ADMIN-UCSF-mk039, 27, 5 x 6 = 30, Arithmetic Verification, True, true, 964.0, None, None, None, None, None, 58206.0, 59170.0, May 12, 2017, 8:57:09 AM, 32229000, Spring, Third, 8, Left, Female, Group B, 70, None, 2b, None
28, c5dc1aa1836825642dbfad118ec29d80, ADMIN-UCSF-mk039, 28, 4 x 5 = 9, Arithmetic Verification, False, false, 1217.0, None, None, None, None, None, 59923.0, 61141.0, May 12, 2017, 8:57:11 AM, 32231000, Spring, Third, 8, Left, Female, Group B, 70, None, 2b, None
29, c5dc1aa1836825642dbfad118ec29d80, ADMIN-UCSF-mk039, 29, 5 x 3 = 7, Arithmetic Verification, False, false, 1347.0, None, None, None, None, None, 61893.0, 63242.0, May 12, 2017, 8:57:14 AM, 32234000, Spring, Third, 8, Left, Female, Group B, 70, None, 2b, None
30, c5dc1aa1836825642dbfad118ec29d80, ADMIN-UCSF-mk039, 30, 5 x 4 = 8, Arithmetic Verification, False, false, 1480.0, None, None, None, None, None, 63994.0, 65475.0, May 12, 2017, 8:57:16 AM, 32236000, Spring, Third, 8, Left, Female, Group B, 70, None, 2b, None
31, c5dc1aa1836825642dbfad118ec29d80, ADMIN-UCSF-mk039, 31, 2 x 5 = 10, Arithmetic Verification, True, true, 1298.0, None, None, None, None, None, 66227.0, 67526.0, May 12, 2017, 8:57:18 AM, 32238000, Spring, Third, 8, Left, Female, Group B, 70, None, 2b, None
32, c5dc1aa1836825642dbfad118ec29d80, ADMIN-UCSF-mk039, 32, 4 x 2 = 8, Arithmetic Verification, True, true, 864.0, None, None, None, None, None, 68277.0, 69142.0, May 12, 2017, 8:57:19 AM, 32239000, Spring, Third, 8, Left, Female, Group B, 70, None, 2b, None
33, c5dc1aa1836825642dbfad118ec29d80, ADMIN-UCSF-mk039, 33, 3 x 5 = 8, Arithmetic Verification, False, false, 1043.0, None, None, None, None, None, 69894.0, 70938.0, May 12, 2017, 8:57:21 AM, 32241000, Spring, Third, 8, Left, Female, Group B, 70, None, 2b, None
34, c5dc1aa1836825642dbfad118ec29d80, ADMIN-UCSF-mk039, 34, 6 x 2 = 12, Arithmetic Verification, True, true, 781.0, None, None, None, None, None, 71690.0, 72472.0, May 12, 2017, 8:57:23 AM, 32243000, Spring, Third, 8, Left, Female, Group B, 70, None, 2b, None
35, c5dc1aa1836825642dbfad118ec29d80, ADMIN-UCSF-mk039, 35, 2 x 4 = 7, Arithmetic Verification, False, false, 915.0, None, None, None, None, None, 73223.0, 74139.0, May 12, 2017, 8:57:24 AM, 32244000, Spring, Third, 8, Left, Female, Group B, 70, None, 2b, None
36, c5dc1aa1836825642dbfad118ec29d80, ADMIN-UCSF-mk039, 36, 6 x 2 = 8, Arithmetic Verification, False, false, 1264.0, None, None, None, None, None, 74891.0, 76155.0, May 12, 2017, 8:57:26 AM, 32246000, Spring, Third, 8, Left, Female, Group B, 70, None, 2b, None
37, c5dc1aa1836825642dbfad118ec29d80, ADMIN-UCSF-mk039, 37, 3 x 4 = 12, Arithmetic Verification, True, true, 1364.0, None, None, None, None, None, 76908.0, 78272.0, May 12, 2017, 8:57:29 AM, 32249000, Spring, Third, 8, Left, Female, Group B, 70, None, 2b, None
38, c5dc1aa1836825642dbfad118ec29d80, ADMIN-UCSF-mk039, 38, 5 x 6 = 13, Arithmetic Verification, False, false, 934.0, None, None, None, None, None, 79025.0, 79960.0, May 12, 2017, 8:57:30 AM, 32250000, Spring, Third, 8, Left, Female, Group B, 70, None, 2b, None
39, c5dc1aa1836825642dbfad118ec29d80, ADMIN-UCSF-mk039, 39, 3 x 5 = 15, Arithmetic Verification, True, true, 1431.0, None, None, None, None, None, 80712.0, 82143.0, May 12, 2017, 8:57:32 AM, 32252000, Spring, Third, 8, Left, Female, Group B, 70, None, 2b, None
40, c5dc1aa1836825642dbfad118ec29d80, ADMIN-UCSF-mk039, 40, 5 + 4 = 9, Arithmetic Verification, True, true, 3280.0, None, None, None, None, None, 82895.0, 86177.0, May 12, 2017, 8:57:37 AM, 32257000, Spring, Third, 8, Left, Female, Group B, 70, None, 2b, None
41, c5dc1aa1836825642dbfad118ec29d80, ADMIN-UCSF-mk039, 41, 3 + 6 = 18, Arithmetic Verification, True, false, 815.0, None, None, None, None, None, 86929.0, 87746.0, May 12, 2017, 8:57:38 AM, 32258000, Spring, Third, 8, Left, Female, Group B, 70, None, 2b, None
42, c5dc1aa1836825642dbfad118ec29d80, ADMIN-UCSF-mk039, 42, 3 + 5 = 8, Arithmetic Verification, False, true, 945.0, None, None, None, None, None, 88498.0, 89444.0, May 12, 2017, 8:57:40 AM, 32260000, Spring, Third, 8, Left, Female, Group B, 70, None, 2b, None
43, c5dc1aa1836825642dbfad118ec29d80, ADMIN-UCSF-mk039, 43, 6 + 3 = 9, Arithmetic Verification, True, true, 1442.0, None, None, None, None, None, 90197.0, 91640.0, May 12, 2017, 8:57:42 AM, 32262000, Spring, Third, 8, Left, Female, Group B, 70, None, 2b, None
44, c5dc1aa1836825642dbfad118ec29d80, ADMIN-UCSF-mk039, 44, 3 + 2 = 4, Arithmetic Verification, False, false, 1385.0, None, None, None, None, None, 92392.0, 93778.0, May 12, 2017, 8:57:44 AM, 32264000, Spring, Third, 8, Left, Female, Group B, 70, None, 2b, None
45, c5dc1aa1836825642dbfad118ec29d80, ADMIN-UCSF-mk039, 45, 2 x 3 = 7, Arithmetic Verification, False, false, 1381.0, None, None, None, None, None, 94530.0, 95912.0, May 12, 2017, 8:57:46 AM, 32266000, Spring, Third, 8, Left, Female, Group B, 70, None, 2b, None
46, c5dc1aa1836825642dbfad118ec29d80, ADMIN-UCSF-mk039, 46, 6 x 5 = 30, Arithmetic Verification, True, true, 943.0, None, None, None, None, None, 96664.0, 97608.0, May 12, 2017, 8:57:48 AM, 32268000, Spring, Third, 8, Left, Female, Group B, 70, None, 2b, None
47, c5dc1aa1836825642dbfad118ec29d80, ADMIN-UCSF-mk039, 47, 3 + 4 = 7, Arithmetic Verification, True, true, 1366.0, None, None, None, None, None, 98360.0, 99728.0, May 12, 2017, 8:57:50 AM, 32270000, Spring, Third, 8, Left, Female, Group B, 70, None, 2b, None
48, c5dc1aa1836825642dbfad118ec29d80, ADMIN-UCSF-mk039, 48, 5 x 2 = 10, Arithmetic Verification, False, true, 960.0, None, None, None, None, None, 100479.0, 101441.0, May 12, 2017, 8:57:52 AM, 32272000, Spring, Third, 8, Left, Female, Group B, 70, None, 2b, None
49, c5dc1aa1836825642dbfad118ec29d80, ADMIN-UCSF-mk039, 49, 6 + 4 = 26, Arithmetic Verification, False, false, 1368.0, None, None, None, None, None, 102193.0, 103562.0, May 12, 2017, 8:57:54 AM, 32274000, Spring, Third, 8, Left, Female, Group B, 70, None, 2b, None
50, c5dc1aa1836825642dbfad118ec29d80, ADMIN-UCSF-mk039, 50, 6 x 4 = 8, Arithmetic Verification, False, false, 1280.0, None, None, None, None, None, 104314.0, 105595.0, May 12, 2017, 8:57:56 AM, 32276000, Spring, Third, 8, Left, Female, Group B, 70, None, 2b, None
51, c5dc1aa1836825642dbfad118ec29d80, ADMIN-UCSF-mk039, 51, 3 + 2 = 5, Arithmetic Verification, True, true, 1526.0, None, None, None, None, None, 106347.0, 107874.0, May 12, 2017, 8:57:58 AM, 32278000, Spring, Third, 8, Left, Female, Group B, 70, None, 2b, None
52, c5dc1aa1836825642dbfad118ec29d80, ADMIN-UCSF-mk039, 52, 4 x 3 = 6, Arithmetic Verification, False, false, 1181.0, None, None, None, None, None, 108626.0, 109808.0, May 12, 2017, 8:58:00 AM, 32280000, Spring, Third, 8, Left, Female, Group B, 70, None, 2b, None
53, c5dc1aa1836825642dbfad118ec29d80, ADMIN-UCSF-mk039, 53, 2 x 5 = 5, Arithmetic Verification, False, false, 1914.0, None, None, None, None, None, 110560.0, 112475.0, May 12, 2017, 8:58:03 AM, 32283000, Spring, Third, 8, Left, Female, Group B, 70, None, 2b, None
54, c5dc1aa1836825642dbfad118ec29d80, ADMIN-UCSF-mk039, 54, 6 x 4 = 10, Arithmetic Verification, False, false, 1402.0, None, None, None, None, None, 113227.0, 114630.0, May 12, 2017, 8:58:05 AM, 32285000, Spring, Third, 8, Left, Female, Group B, 70, None, 2b, None
55, c5dc1aa1836825642dbfad118ec29d80, ADMIN-UCSF-mk039, 55, 2 + 4 = 6, Arithmetic Verification, True, true, 1692.0, None, None, None, None, None, 115382.0, 117075.0, May 12, 2017, 8:58:07 AM, 32287000, Spring, Third, 8, Left, Female, Group B, 70, None, 2b, None
56, c5dc1aa1836825642dbfad118ec29d80, ADMIN-UCSF-mk039, 56, 2 + 3 = 6, Arithmetic Verification, True, false, 968.0, None, None, None, None, None, 117827.0, 118796.0, May 12, 2017, 8:58:09 AM, 32289000, Spring, Third, 8, Left, Female, Group B, 70, None, 2b, None
57, c5dc1aa1836825642dbfad118ec29d80, ADMIN-UCSF-mk039, 57, 2 x 4 = 8, Arithmetic Verification, True, true, 1263.0, None, None, None, None, None, 119548.0, 120813.0, May 12, 2017, 8:58:11 AM, 32291000, Spring, Third, 8, Left, Female, Group B, 70, None, 2b, None
58, c5dc1aa1836825642dbfad118ec29d80, ADMIN-UCSF-mk039, 58, 4 + 3 = 11, Arithmetic Verification, False, false, 927.0, None, None, None, None, None, 121565.0, 122493.0, May 12, 2017, 8:58:13 AM, 32293000, Spring, Third, 8, Left, Female, Group B, 70, None, 2b, None
59, c5dc1aa1836825642dbfad118ec29d80, ADMIN-UCSF-mk039, 59, 6 x 3 = 18, Arithmetic Verification, True, true, 1284.0, None, None, None, None, None, 123245.0, 124530.0, May 12, 2017, 8:58:15 AM, 32295000, Spring, Third, 8, Left, Female, Group B, 70, None, 2b, None
60, c5dc1aa1836825642dbfad118ec29d80, ADMIN-UCSF-mk039, 60, 3 x 4 = 7, Arithmetic Verification, False, false, 1876.0, None, None, None, None, None, 125282.0, 127160.0, May 12, 2017, 8:58:17 AM, 32297000, Spring, Third, 8, Left, Female, Group B, 70, None, 2b, None
61, c5dc1aa1836825642dbfad118ec29d80, ADMIN-UCSF-mk039, 61, 5 + 2 = 10, Arithmetic Verification, False, false, 1879.0, None, None, None, None, None, 127912.0, 129793.0, May 12, 2017, 8:58:20 AM, 32300000, Spring, Third, 8, Left, Female, Group B, 70, None, 2b, None
62, c5dc1aa1836825642dbfad118ec29d80, ADMIN-UCSF-mk039, 62, 5 x 3 = 15, Arithmetic Verification, True, true, 1497.0, None, None, None, None, None, 130546.0, 132044.0, May 12, 2017, 8:58:22 AM, 32302000, Spring, Third, 8, Left, Female, Group B, 70, None, 2b, None
63, c5dc1aa1836825642dbfad118ec29d80, ADMIN-UCSF-mk039, 63, 4 + 3 = 12, Arithmetic Verification, False, false, 980.0, None, None, None, None, None, 132796.0, 133777.0, May 12, 2017, 8:58:24 AM, 32304000, Spring, Third, 8, Left, Female, Group B, 70, None, 2b, None
64, c5dc1aa1836825642dbfad118ec29d80, ADMIN-UCSF-mk039, 64, 3 x 2 = 5, Arithmetic Verification, False, false, 1635.0, None, None, None, None, None, 134529.0, 136165.0, May 12, 2017, 8:58:26 AM, 32306000, Spring, Third, 8, Left, Female, Group B, 70, None, 2b, None
65, c5dc1aa1836825642dbfad118ec29d80, ADMIN-UCSF-mk039, 65, 2 x 3 = 6, Arithmetic Verification, True, true, 942.0, None, None, None, None, None, 136917.0, 137860.0, May 12, 2017, 8:58:28 AM, 32308000, Spring, Third, 8, Left, Female, Group B, 70, None, 2b, None
66, c5dc1aa1836825642dbfad118ec29d80, ADMIN-UCSF-mk039, 66, 5 + 2 = 7, Arithmetic Verification, False, true, 1397.0, None, None, None, None, None, 138613.0, 140011.0, May 12, 2017, 8:58:30 AM, 32310000, Spring, Third, 8, Left, Female, Group B, 70, None, 2b, None
67, c5dc1aa1836825642dbfad118ec29d80, ADMIN-UCSF-mk039, 67, 4 + 6 = 24, Arithmetic Verification, True, false, 1365.0, None, None, None, None, None, 140763.0, 142128.0, May 12, 2017, 8:58:32 AM, 32312000, Spring, Third, 8, Left, Female, Group B, 70, None, 2b, None
68, c5dc1aa1836825642dbfad118ec29d80, ADMIN-UCSF-mk039, 68, 6 + 3 = 17, Arithmetic Verification, False, false, 3751.0, None, None, None, None, None, 142880.0, 146632.0, May 12, 2017, 8:58:37 AM, 32317000, Spring, Third, 8, Left, Female, Group B, 70, None, 2b, None
69, c5dc1aa1836825642dbfad118ec29d80, ADMIN-UCSF-mk039, 69, 5 x 2 = 7, Arithmetic Verification, False, false, 1043.0, None, None, None, None, None, 147384.0, 148428.0, May 12, 2017, 8:58:39 AM, 32319000, Spring, Third, 8, Left, Female, Group B, 70, None, 2b, None
70, c5dc1aa1836825642dbfad118ec29d80, ADMIN-UCSF-mk039, 70, 6 x 4 = 24, Arithmetic Verification, True, true, 1000.0, None, None, None, None, None, 149181.0, 150182.0, May 12, 2017, 8:58:41 AM, 32321000, Spring, Third, 8, Left, Female, Group B, 70, None, 2b, None
71, c5dc1aa1836825642dbfad118ec29d80, ADMIN-UCSF-mk039, 71, 6 + 2 = 8, Arithmetic Verification, False, true, 1543.0, None, None, None, None, None, 150935.0, 152478.0, May 12, 2017, 8:58:43 AM, 32323000, Spring, Third, 8, Left, Female, Group B, 70, None, 2b, None
72, c5dc1aa1836825642dbfad118ec29d80, ADMIN-UCSF-mk039, 72, 6 x 3 = 10, Arithmetic Verification, False, false, 2201.0, None, None, None, None, None, 153230.0, 155433.0, May 12, 2017, 8:58:46 AM, 32326000, Spring, Third, 8, Left, Female, Group B, 70, None, 2b, None
73, c5dc1aa1836825642dbfad118ec29d80, ADMIN-UCSF-mk039, 73, 4 x 3 = 12, Arithmetic Verification, True, true, 960.0, None, None, None, None, None, 156184.0, 157145.0, May 12, 2017, 8:58:47 AM, 32327000, Spring, Third, 8, Left, Female, Group B, 70, None, 2b, None
74, c5dc1aa1836825642dbfad118ec29d80, ADMIN-UCSF-mk039, 74, 2 x 6 = 12, Arithmetic Verification, True, true, 779.0, None, None, None, None, None, 157899.0, 158679.0, May 12, 2017, 8:58:49 AM, 32329000, Spring, Third, 8, Left, Female, Group B, 70, None, 2b, None
75, c5dc1aa1836825642dbfad118ec29d80, ADMIN-UCSF-mk039, 75, 6 + 5 = 11, Arithmetic Verification, False, true, 817.0, None, None, None, None, None, 159431.0, 160249.0, May 12, 2017, 8:58:51 AM, 32331000, Spring, Third, 8, Left, Female, Group B, 70, None, 2b, None
76, c5dc1aa1836825642dbfad118ec29d80, ADMIN-UCSF-mk039, 76, 4 + 6 = 10, Arithmetic Verification, False, true, 953.0, None, None, None, None, None, 161001.0, 161955.0, May 12, 2017, 8:58:52 AM, 32332000, Spring, Third, 8, Left, Female, Group B, 70, None, 2b, None
77, c5dc1aa1836825642dbfad118ec29d80, ADMIN-UCSF-mk039, 77, 3 x 6 = 9, Arithmetic Verification, False, false, 1874.0, None, None, None, None, None, 162708.0, 164583.0, May 12, 2017, 8:58:55 AM, 32335000, Spring, Third, 8, Left, Female, Group B, 70, None, 2b, None
78, c5dc1aa1836825642dbfad118ec29d80, ADMIN-UCSF-mk039, 78, 4 x 5 = 20, Arithmetic Verification, True, true, 1410.0, None, None, None, None, None, 165335.0, 166746.0, May 12, 2017, 8:58:57 AM, 32337000, Spring, Third, 8, Left, Female, Group B, 70, None, 2b, None
79, c5dc1aa1836825642dbfad118ec29d80, ADMIN-UCSF-mk039, 79, 5 + 2 = 11, Arithmetic Verification, False, false, 1200.0, None, None, None, None, None, 167499.0, 168700.0, May 12, 2017, 8:58:59 AM, 32339000, Spring, Third, 8, Left, Female, Group B, 70, None, 2b, None
79, c5dc1aa1836825642dbfad118ec29d80, ADMIN-UCSF-mk039, 0, 6 + 2, Math Recall, 8, 8, 2139.0, 1921.0, None, None, None, 2141.0, 0.0, 2141.0, May 12, 2017, 9:03:30 AM, 32610000, Spring, Third, 8, Left, Female, Group B, 70, One, None, Horizontal
80, c5dc1aa1836825642dbfad118ec29d80, ADMIN-UCSF-mk039, 1, 7 + 8, Math Recall, 15, 15, 2570.0, 4571.0, 5517.0, None, None, 5718.0, 3145.0, 5717.0, May 12, 2017, 9:03:33 AM, 32613000, Spring, Third, 8, Left, Female, Group B, 70, One, None, Horizontal
81, c5dc1aa1836825642dbfad118ec29d80, ADMIN-UCSF-mk039, 2, 32 + 7, Math Recall, 39, 39, 4579.0, 10684.0, 11051.0, None, None, 11301.0, 6721.0, 11301.0, May 12, 2017, 9:03:39 AM, 32619000, Spring, Third, 8, Left, Female, Group B, 70, One, None, Horizontal
82, c5dc1aa1836825642dbfad118ec29d80, ADMIN-UCSF-mk039, 3, 49 + 5, Math Recall, 5, 54, 10002.0, 15891.0, None, None, None, 22307.0, 12304.0, 22307.0, May 12, 2017, 9:03:50 AM, 32630000, Spring, Third, 8, Left, Female, Group B, 70, One, None, Horizontal
83, c5dc1aa1836825642dbfad118ec29d80, ADMIN-UCSF-mk039, 4, 69 + 27, Math Recall, 9, 96, 10002.0, 30886.0, None, None, None, 33312.0, 23309.0, 33312.0, May 12, 2017, 9:04:01 AM, 32641000, Spring, Third, 8, Left, Female, Group B, 70, One, None, Horizontal
84, c5dc1aa1836825642dbfad118ec29d80, ADMIN-UCSF-mk039, 5, 44 + 32, Math Recall, 76, 76, 7471.0, 39670.0, 41471.0, None, None, 41787.0, 34314.0, 41787.0, May 12, 2017, 9:04:10 AM, 32650000, Spring, Third, 8, Left, Female, Group B, 70, One, None, Horizontal
85, c5dc1aa1836825642dbfad118ec29d80, ADMIN-UCSF-mk039, 6, 8 + 5, Math Recall, 13, 13, 4146.0, 46421.0, 46704.0, None, None, 46938.0, 42789.0, 46938.0, May 12, 2017, 9:04:15 AM, 32655000, Spring, Third, 8, Left, Female, Group B, 70, One, None, Vertical
86, c5dc1aa1836825642dbfad118ec29d80, ADMIN-UCSF-mk039, 7, 3 + 4, Math Recall, 7, 7, 1713.0, 49404.0, None, None, None, 49654.0, 47940.0, 49654.0, May 12, 2017, 9:04:17 AM, 32657000, Spring, Third, 8, Left, Female, Group B, 70, One, None, Vertical
87, c5dc1aa1836825642dbfad118ec29d80, ADMIN-UCSF-mk039, 8, 83 + 6, Math Recall, 89, 89, 4313.0, 53710.0, 54755.0, None, None, 54971.0, 50657.0, 54971.0, May 12, 2017, 9:04:23 AM, 32663000, Spring, Third, 8, Left, Female, Group B, 70, One, None, Vertical
88, c5dc1aa1836825642dbfad118ec29d80, ADMIN-UCSF-mk039, 9, 54 + 8, Math Recall, 62, 62, 4931.0, 59755.0, 60793.0, None, None, 60906.0, 55973.0, 60906.0, May 12, 2017, 9:04:29 AM, 32669000, Spring, Third, 8, Left, Female, Group B, 70, One, None, Vertical
89, c5dc1aa1836825642dbfad118ec29d80, ADMIN-UCSF-mk039, 10, 36 + 58, Math Recall, 94, 94, 4214.0, 65438.0, 65921.0, None, None, 66124.0, 61908.0, 66123.0, May 12, 2017, 9:04:34 AM, 32674000, Spring, Third, 8, Left, Female, Group B, 70, One, None, Vertical
90, c5dc1aa1836825642dbfad118ec29d80, ADMIN-UCSF-mk039, 11, 73 + 25, Math Recall, 98, 98, 4643.0, 70856.0, 71594.0, None, None, 71773.0, 67128.0, 71773.0, May 12, 2017, 9:04:40 AM, 32680000, Spring, Third, 8, Left, Female, Group B, 70, One, None, Vertical
91, c5dc1aa1836825642dbfad118ec29d80, ADMIN-UCSF-mk039, 12, 16 - 9, Math Recall, 7, 7, 2329.0, 74956.0, None, None, None, 75106.0, 72775.0, 75105.0, May 12, 2017, 9:04:43 AM, 32683000, Spring, Third, 8, Left, Female, Group B, 70, One, None, Horizontal
92, c5dc1aa1836825642dbfad118ec29d80, ADMIN-UCSF-mk039, 13, 8 - 2, Math Recall, 4, 6, 1813.0, 77756.0, None, None, None, 77924.0, 76108.0, 77923.0, May 12, 2017, 9:04:46 AM, 32686000, Spring, Third, 8, Left, Female, Group B, 70, One, None, Horizontal
93, c5dc1aa1836825642dbfad118ec29d80, ADMIN-UCSF-mk039, 14, 32 - 7, Math Recall, 2, 25, 10002.0, 84507.0, None, None, None, 88929.0, 78925.0, 88929.0, May 12, 2017, 9:04:57 AM, 32697000, Spring, Third, 8, Left, Female, Group B, 70, One, None, Horizontal
94, c5dc1aa1836825642dbfad118ec29d80, ADMIN-UCSF-mk039, 15, 98 - 4, Math Recall, 94, 94, 6259.0, 95340.0, 95946.0, None, None, 96192.0, 89931.0, 96191.0, May 12, 2017, 9:05:04 AM, 32704000, Spring, Third, 8, Left, Female, Group B, 70, One, None, Horizontal
95, c5dc1aa1836825642dbfad118ec29d80, ADMIN-UCSF-mk039, 16, 86 - 23, Math Recall, 6, 63, 10002.0, 106992.0, None, None, None, 107197.0, 97194.0, 107197.0, May 12, 2017, 9:05:15 AM, 32715000, Spring, Third, 8, Left, Female, Group B, 70, One, None, Horizontal
96, c5dc1aa1836825642dbfad118ec29d80, ADMIN-UCSF-mk039, 17, 74 - 49, Math Recall, 35, 25, 10002.0, 117782.0, 118059.0, None, None, 118202.0, 108199.0, 118202.0, May 12, 2017, 9:05:26 AM, 32726000, Spring, Third, 8, Left, Female, Group B, 70, One, None, Horizontal
97, c5dc1aa1836825642dbfad118ec29d80, ADMIN-UCSF-mk039, 18, 13 - 7, Math Recall, 6, 6, 2587.0, 121443.0, None, None, None, 121793.0, 119204.0, 121793.0, May 12, 2017, 9:05:30 AM, 32730000, Spring, Third, 8, Left, Female, Group B, 70, One, None, Vertical
98, c5dc1aa1836825642dbfad118ec29d80, ADMIN-UCSF-mk039, 19, 9 - 4, Math Recall, 5, 5, 2713.0, 124927.0, None, None, None, 125511.0, 122796.0, 125511.0, May 12, 2017, 9:05:33 AM, 32733000, Spring, Third, 8, Left, Female, Group B, 70, One, None, Vertical
99, c5dc1aa1836825642dbfad118ec29d80, ADMIN-UCSF-mk039, 20, 63 - 5, Math Recall, 58, 58, 6147.0, 130177.0, 132415.0, None, None, 132663.0, 126513.0, 132662.0, May 12, 2017, 9:05:40 AM, 32740000, Spring, Third, 8, Left, Female, Group B, 70, One, None, Vertical
100, c5dc1aa1836825642dbfad118ec29d80, ADMIN-UCSF-mk039, 21, 49 - 6, Math Recall, 43, 43, 3828.0, 136666.0, 137178.0, None, None, 137495.0, 133664.0, 137495.0, May 12, 2017, 9:05:45 AM, 32745000, Spring, Third, 8, Left, Female, Group B, 70, One, None, Vertical
101, c5dc1aa1836825642dbfad118ec29d80, ADMIN-UCSF-mk039, 22, 68 - 35, Math Recall, 33, 33, 5731.0, 142783.0, 143934.0, None, None, 144229.0, 138497.0, 144229.0, May 12, 2017, 9:05:52 AM, 32752000, Spring, Third, 8, Left, Female, Group B, 70, One, None, Vertical
102, c5dc1aa1836825642dbfad118ec29d80, ADMIN-UCSF-mk039, 23, 92 - 27, Math Recall, 65, 65, 10002.0, 151779.0, 154663.0, None, None, 155234.0, 145231.0, 155234.0, May 12, 2017, 9:06:03 AM, 32763000, Spring, Third, 8, Left, Female, Group B, 70, One, None, Vertical
102, c5dc1aa1836825642dbfad118ec29d80, ADMIN-UCSF-mk039, 24, 92 - 27, Math Recall, 65, 65, 10064.0, 151779.0, 154663.0, None, None, 155297.0, 145231.0, 155297.0, May 12, 2017, 9:06:03 AM, 32763000, Spring, Third, 8, Left, Female, Group B, 70, One, None, Vertical
102, c5dc1aa1836825642dbfad118ec29d80, ADMIN-UCSF-mk039, 0, 2 - 1, Math Fluency, 1, 1, 1262.0, 1112.0, None, None, None, 1262.0, 0.0, 1262.0, May 12, 2017, 9:09:34 AM, 32974000, Spring, Third, 8, Left, Female, Group B, 70, None, None, 
103, c5dc1aa1836825642dbfad118ec29d80, ADMIN-UCSF-mk039, 1, 1 + 0, Math Fluency, 1, 1, 1428.0, 3513.0, None, None, None, 3695.0, 2265.0, 3695.0, May 12, 2017, 9:09:36 AM, 32976000, Spring, Third, 8, Left, Female, Group B, 70, None, None, 
104, c5dc1aa1836825642dbfad118ec29d80, ADMIN-UCSF-mk039, 2, 0 + 5, Math Fluency, 5, 5, 1813.0, 6283.0, None, None, None, 6513.0, 4697.0, 6513.0, May 12, 2017, 9:09:39 AM, 32979000, Spring, Third, 8, Left, Female, Group B, 70, None, None, 
105, c5dc1aa1836825642dbfad118ec29d80, ADMIN-UCSF-mk039, 3, 0 + 2, Math Fluency, 2, 2, 1598.0, 8779.0, None, None, None, 9114.0, 7514.0, 9113.0, May 12, 2017, 9:09:42 AM, 32982000, Spring, Third, 8, Left, Female, Group B, 70, None, None, 
106, c5dc1aa1836825642dbfad118ec29d80, ADMIN-UCSF-mk039, 4, 4 + 4, Math Fluency, 8, 8, 1545.0, 11346.0, None, None, None, 11664.0, 10116.0, 11663.0, May 12, 2017, 9:09:44 AM, 32984000, Spring, Third, 8, Left, Female, Group B, 70, None, None, 
107, c5dc1aa1836825642dbfad118ec29d80, ADMIN-UCSF-mk039, 5, 4 + 1, Math Fluency, 5, 5, 1896.0, 14283.0, None, None, None, 14564.0, 12665.0, 14563.0, May 12, 2017, 9:09:47 AM, 32987000, Spring, Third, 8, Left, Female, Group B, 70, None, None, 
108, c5dc1aa1836825642dbfad118ec29d80, ADMIN-UCSF-mk039, 6, 3 - 2, Math Fluency, 1, 1, 3463.0, 18634.0, None, None, None, 19031.0, 15565.0, 19030.0, May 12, 2017, 9:09:52 AM, 32992000, Spring, Third, 8, Left, Female, Group B, 70, None, None, 
109, c5dc1aa1836825642dbfad118ec29d80, ADMIN-UCSF-mk039, 7, 4 - 0, Math Fluency, 4, 4, 2246.0, 21568.0, None, None, None, 22281.0, 20032.0, 22280.0, May 12, 2017, 9:09:55 AM, 32995000, Spring, Third, 8, Left, Female, Group B, 70, None, None, 
110, c5dc1aa1836825642dbfad118ec29d80, ADMIN-UCSF-mk039, 8, 1 - 0, Math Fluency, 1, 1, 1663.0, 24547.0, None, None, None, 24947.0, 23283.0, 24947.0, May 12, 2017, 9:09:58 AM, 32998000, Spring, Third, 8, Left, Female, Group B, 70, None, None, 
111, c5dc1aa1836825642dbfad118ec29d80, ADMIN-UCSF-mk039, 9, 7 - 2, Math Fluency, 5, 5, 3663.0, 29264.0, None, None, None, 29615.0, 25950.0, 29615.0, May 12, 2017, 9:10:02 AM, 33002000, Spring, Third, 8, Left, Female, Group B, 70, None, None, 
112, c5dc1aa1836825642dbfad118ec29d80, ADMIN-UCSF-mk039, 10, 5 + 4, Math Fluency, 9, 9, 2013.0, 32447.0, None, None, None, 32632.0, 30617.0, 32631.0, May 12, 2017, 9:10:05 AM, 33005000, Spring, Third, 8, Left, Female, Group B, 70, None, None, 
113, c5dc1aa1836825642dbfad118ec29d80, ADMIN-UCSF-mk039, 11, 1 - 1, Math Fluency, 0, 0, 2113.0, 35431.0, None, None, None, 35749.0, 33633.0, 35749.0, May 12, 2017, 9:10:08 AM, 33008000, Spring, Third, 8, Left, Female, Group B, 70, None, None, 
114, c5dc1aa1836825642dbfad118ec29d80, ADMIN-UCSF-mk039, 12, 2 + 4, Math Fluency, 6, 6, 2297.0, 38765.0, None, None, None, 39049.0, 36751.0, 39049.0, May 12, 2017, 9:10:12 AM, 33012000, Spring, Third, 8, Left, Female, Group B, 70, None, None, 
115, c5dc1aa1836825642dbfad118ec29d80, ADMIN-UCSF-mk039, 13, 6 + 6, Math Fluency, 12, 12, 1896.0, 41535.0, 41747.0, None, None, 41948.0, 40051.0, 41948.0, May 12, 2017, 9:10:15 AM, 33015000, Spring, Third, 8, Left, Female, Group B, 70, None, None, 
116, c5dc1aa1836825642dbfad118ec29d80, ADMIN-UCSF-mk039, 14, 7 + 1, Math Fluency, 8, 8, 2147.0, 44898.0, None, None, None, 45099.0, 42950.0, 45099.0, May 12, 2017, 9:10:18 AM, 33018000, Spring, Third, 8, Left, Female, Group B, 70, None, None, 
117, c5dc1aa1836825642dbfad118ec29d80, ADMIN-UCSF-mk039, 15, 3 + 0, Math Fluency, 3, 3, 1880.0, 47632.0, None, None, None, 47982.0, 46101.0, 47982.0, May 12, 2017, 9:10:21 AM, 33021000, Spring, Third, 8, Left, Female, Group B, 70, None, None, 
118, c5dc1aa1836825642dbfad118ec29d80, ADMIN-UCSF-mk039, 16, 2 + 7, Math Fluency, 9, 9, 1947.0, 50501.0, None, None, None, 50933.0, 48984.0, 50933.0, May 12, 2017, 9:10:24 AM, 33024000, Spring, Third, 8, Left, Female, Group B, 70, None, None, 
119, c5dc1aa1836825642dbfad118ec29d80, ADMIN-UCSF-mk039, 17, 3 - 0, Math Fluency, 3, 3, 1664.0, 53233.0, None, None, None, 53600.0, 51935.0, 53600.0, May 12, 2017, 9:10:26 AM, 33026000, Spring, Third, 8, Left, Female, Group B, 70, None, None, 
120, c5dc1aa1836825642dbfad118ec29d80, ADMIN-UCSF-mk039, 18, 5 - 1, Math Fluency, 4, 4, 1614.0, 55867.0, None, None, None, 56217.0, 54602.0, 56217.0, May 12, 2017, 9:10:29 AM, 33029000, Spring, Third, 8, Left, Female, Group B, 70, None, None, 
121, c5dc1aa1836825642dbfad118ec29d80, ADMIN-UCSF-mk039, 19, 3 + 3, Math Fluency, 6, 6, 3131.0, 59966.0, None, None, None, 60351.0, 57219.0, 60350.0, May 12, 2017, 9:10:33 AM, 33033000, Spring, Third, 8, Left, Female, Group B, 70, None, None, 
122, c5dc1aa1836825642dbfad118ec29d80, ADMIN-UCSF-mk039, 20, 9 - 2, Math Fluency, 7, 7, 1913.0, 62917.0, None, None, None, 63267.0, 61353.0, 63267.0, May 12, 2017, 9:10:36 AM, 33036000, Spring, Third, 8, Left, Female, Group B, 70, None, None, 
123, c5dc1aa1836825642dbfad118ec29d80, ADMIN-UCSF-mk039, 21, 1 + 6, Math Fluency, 7, 7, 2197.0, 66067.0, None, None, None, 66467.0, 64268.0, 66467.0, May 12, 2017, 9:10:39 AM, 33039000, Spring, Third, 8, Left, Female, Group B, 70, None, None, 
124, c5dc1aa1836825642dbfad118ec29d80, ADMIN-UCSF-mk039, 22, 2 - 2, Math Fluency, 0, 0, 2113.0, 69001.0, None, None, None, 69583.0, 67469.0, 69583.0, May 12, 2017, 9:10:42 AM, 33042000, Spring, Third, 8, Left, Female, Group B, 70, None, None, 
125, c5dc1aa1836825642dbfad118ec29d80, ADMIN-UCSF-mk039, 23, 7 - 6, Math Fluency, 1, 1, 2614.0, 72805.0, None, None, None, 73203.0, 70586.0, 73202.0, May 12, 2017, 9:10:46 AM, 33046000, Spring, Third, 8, Left, Female, Group B, 70, None, None, 
126, c5dc1aa1836825642dbfad118ec29d80, ADMIN-UCSF-mk039, 24, 8 + 1, Math Fluency, 9, 9, 2011.0, 75935.0, None, None, None, 76218.0, 74205.0, 76218.0, May 12, 2017, 9:10:49 AM, 33049000, Spring, Third, 8, Left, Female, Group B, 70, None, None, 
127, c5dc1aa1836825642dbfad118ec29d80, ADMIN-UCSF-mk039, 25, 4 + 2, Math Fluency, 6, 6, 3180.0, 80035.0, None, None, None, 80402.0, 77220.0, 80402.0, May 12, 2017, 9:10:53 AM, 33053000, Spring, Third, 8, Left, Female, Group B, 70, None, None, 
128, c5dc1aa1836825642dbfad118ec29d80, ADMIN-UCSF-mk039, 26, 8 - 3, Math Fluency, 5, 5, 1764.0, 82918.0, None, None, None, 83170.0, 81404.0, 83169.0, May 12, 2017, 9:10:56 AM, 33056000, Spring, Third, 8, Left, Female, Group B, 70, None, None, 
129, c5dc1aa1836825642dbfad118ec29d80, ADMIN-UCSF-mk039, 27, 5 - 5, Math Fluency, 0, 0, 3495.0, 87119.0, None, None, None, 87670.0, 84173.0, 87670.0, May 12, 2017, 9:11:00 AM, 33060000, Spring, Third, 8, Left, Female, Group B, 70, None, None, 
130, c5dc1aa1836825642dbfad118ec29d80, ADMIN-UCSF-mk039, 28, 5 + 1, Math Fluency, 6, 6, 1912.0, 90186.0, None, None, None, 90585.0, 88672.0, 90585.0, May 12, 2017, 9:11:03 AM, 33063000, Spring, Third, 8, Left, Female, Group B, 70, None, None, 
131, c5dc1aa1836825642dbfad118ec29d80, ADMIN-UCSF-mk039, 29, 10 - 2, Math Fluency, 8, 8, 2414.0, 93553.0, None, None, None, 94004.0, 91587.0, 94004.0, May 12, 2017, 9:11:07 AM, 33067000, Spring, Third, 8, Left, Female, Group B, 70, None, None, 
132, c5dc1aa1836825642dbfad118ec29d80, ADMIN-UCSF-mk039, 30, 6 + 1, Math Fluency, 7, 7, 3379.0, 97907.0, None, None, None, 98386.0, 95006.0, 98386.0, May 12, 2017, 9:11:11 AM, 33071000, Spring, Third, 8, Left, Female, Group B, 70, None, None, 
133, c5dc1aa1836825642dbfad118ec29d80, ADMIN-UCSF-mk039, 31, 3 + 8, Math Fluency, 11, 11, 2098.0, 100808.0, 101037.0, None, None, 101490.0, 99388.0, 101488.0, May 12, 2017, 9:11:14 AM, 33074000, Spring, Third, 8, Left, Female, Group B, 70, None, None, 
134, c5dc1aa1836825642dbfad118ec29d80, ADMIN-UCSF-mk039, 32, 6 - 1, Math Fluency, 5, 5, 2410.0, 104596.0, None, None, None, 104904.0, 102491.0, 104904.0, May 12, 2017, 9:11:18 AM, 33078000, Spring, Third, 8, Left, Female, Group B, 70, None, None, 
135, c5dc1aa1836825642dbfad118ec29d80, ADMIN-UCSF-mk039, 33, 4 - 3, Math Fluency, 1, 1, 1631.0, 106971.0, None, None, None, 107539.0, 105905.0, 107538.0, May 12, 2017, 9:11:20 AM, 33080000, Spring, Third, 8, Left, Female, Group B, 70, None, None, 
136, c5dc1aa1836825642dbfad118ec29d80, ADMIN-UCSF-mk039, 34, 1 + 1, Math Fluency, 2, 2, 1912.0, 109854.0, None, None, None, 110454.0, 108541.0, 110454.0, May 12, 2017, 9:11:23 AM, 33083000, Spring, Third, 8, Left, Female, Group B, 70, None, None, 
137, c5dc1aa1836825642dbfad118ec29d80, ADMIN-UCSF-mk039, 35, 2 + 6, Math Fluency, 8, 8, 1548.0, 112514.0, None, None, None, 113006.0, 111457.0, 113006.0, May 12, 2017, 9:11:26 AM, 33086000, Spring, Third, 8, Left, Female, Group B, 70, None, None, 
138, c5dc1aa1836825642dbfad118ec29d80, ADMIN-UCSF-mk039, 36, 1 + 5, Math Fluency, 6, 6, 1730.0, 115305.0, None, None, None, 115739.0, 114008.0, 115739.0, May 12, 2017, 9:11:28 AM, 33088000, Spring, Third, 8, Left, Female, Group B, 70, None, None, 
139, c5dc1aa1836825642dbfad118ec29d80, ADMIN-UCSF-mk039, 37, 8 - 2, Math Fluency, 6, 6, 1979.0, 118355.0, None, None, None, 118722.0, 116741.0, 118722.0, May 12, 2017, 9:11:31 AM, 33091000, Spring, Third, 8, Left, Female, Group B, 70, None, None, 
140, c5dc1aa1836825642dbfad118ec29d80, ADMIN-UCSF-mk039, 38, 5 + 5, Math Fluency, 10, 10, 2148.0, 121293.0, 121488.0, None, None, 121875.0, 119724.0, 121875.0, May 12, 2017, 9:11:35 AM, 33095000, Spring, Third, 8, Left, Female, Group B, 70, None, None, 
141, c5dc1aa1836825642dbfad118ec29d80, ADMIN-UCSF-mk039, 39, 8 - 4, Math Fluency, 4, 4, 1794.0, 124405.0, None, None, None, 124672.0, 122877.0, 124672.0, May 12, 2017, 9:11:37 AM, 33097000, Spring, Third, 8, Left, Female, Group B, 70, None, None, 
142, c5dc1aa1836825642dbfad118ec29d80, ADMIN-UCSF-mk039, 40, 4 + 6, Math Fluency, 10, 10, 2914.0, 127009.0, 128010.0, None, None, 128590.0, 125675.0, 128590.0, May 12, 2017, 9:11:41 AM, 33101000, Spring, Third, 8, Left, Female, Group B, 70, None, None, 
143, c5dc1aa1836825642dbfad118ec29d80, ADMIN-UCSF-mk039, 41, 5 - 3, Math Fluency, 2, 2, 1695.0, 130960.0, None, None, None, 131289.0, 129592.0, 131289.0, May 12, 2017, 9:11:44 AM, 33104000, Spring, Third, 8, Left, Female, Group B, 70, None, None, 
144, c5dc1aa1836825642dbfad118ec29d80, ADMIN-UCSF-mk039, 42, 7 + 3, Math Fluency, 10, 10, 2148.0, 133893.0, 134106.0, None, None, 134442.0, 132292.0, 134441.0, May 12, 2017, 9:11:47 AM, 33107000, Spring, Third, 8, Left, Female, Group B, 70, None, None, 
145, c5dc1aa1836825642dbfad118ec29d80, ADMIN-UCSF-mk039, 43, 10 - 10, Math Fluency, 0, 0, 1513.0, 136640.0, None, None, None, 136962.0, 135444.0, 136961.0, May 12, 2017, 9:11:50 AM, 33110000, Spring, Third, 8, Left, Female, Group B, 70, None, None, 
146, c5dc1aa1836825642dbfad118ec29d80, ADMIN-UCSF-mk039, 44, 8 - 6, Math Fluency, 2, 2, 1460.0, 139073.0, None, None, None, 139424.0, 137963.0, 139424.0, May 12, 2017, 9:11:52 AM, 33112000, Spring, Third, 8, Left, Female, Group B, 70, None, None, 
147, c5dc1aa1836825642dbfad118ec29d80, ADMIN-UCSF-mk039, 45, 4 - 2, Math Fluency, 2, 2, 1979.0, 142095.0, None, None, None, 142408.0, 140426.0, 142407.0, May 12, 2017, 9:11:55 AM, 33115000, Spring, Third, 8, Left, Female, Group B, 70, None, None, 
148, c5dc1aa1836825642dbfad118ec29d80, ADMIN-UCSF-mk039, 46, 7 - 4, Math Fluency, 3, 3, 1278.0, 144444.0, None, None, None, 144692.0, 143411.0, 144692.0, May 12, 2017, 9:11:57 AM, 33117000, Spring, Third, 8, Left, Female, Group B, 70, None, None, 
149, c5dc1aa1836825642dbfad118ec29d80, ADMIN-UCSF-mk039, 47, 3 + 6, Math Fluency, 9, 9, 2045.0, 147491.0, None, None, None, 147741.0, 145694.0, 147741.0, May 12, 2017, 9:12:00 AM, 33120000, Spring, Third, 8, Left, Female, Group B, 70, None, None, 
150, c5dc1aa1836825642dbfad118ec29d80, ADMIN-UCSF-mk039, 48, 4 - 4, Math Fluency, 0, 0, 1881.0, 150074.0, None, None, None, 150626.0, 148742.0, 150626.0, May 12, 2017, 9:12:03 AM, 33123000, Spring, Third, 8, Left, Female, Group B, 70, None, None, 
151, c5dc1aa1836825642dbfad118ec29d80, ADMIN-UCSF-mk039, 49, 8 + 4, Math Fluency, 12, 12, 3413.0, 154308.0, 154658.0, None, None, 155043.0, 151627.0, 155043.0, May 12, 2017, 9:12:08 AM, 33128000, Spring, Third, 8, Left, Female, Group B, 70, None, None, 
152, c5dc1aa1836825642dbfad118ec29d80, ADMIN-UCSF-mk039, 50, 6 + 4, Math Fluency, 10, 10, 1929.0, 157408.0, 157625.0, None, None, 157975.0, 156045.0, 157975.0, May 12, 2017, 9:12:11 AM, 33131000, Spring, Third, 8, Left, Female, Group B, 70, None, None, 
153, c5dc1aa1836825642dbfad118ec29d80, ADMIN-UCSF-mk039, 51, 9 + 0, Math Fluency, 9, 9, 2297.0, 160992.0, None, None, None, 161276.0, 158977.0, 161276.0, May 12, 2017, 9:12:14 AM, 33134000, Spring, Third, 8, Left, Female, Group B, 70, None, None, 
154, c5dc1aa1836825642dbfad118ec29d80, ADMIN-UCSF-mk039, 52, 1 + 7, Math Fluency, 8, 8, 1697.0, 163661.0, None, None, None, 163977.0, 162278.0, 163977.0, May 12, 2017, 9:12:17 AM, 33137000, Spring, Third, 8, Left, Female, Group B, 70, None, None, 
155, c5dc1aa1836825642dbfad118ec29d80, ADMIN-UCSF-mk039, 53, 3 - 1, Math Fluency, 2, 2, 1879.0, 166542.0, None, None, None, 166860.0, 164980.0, 166860.0, May 12, 2017, 9:12:20 AM, 33140000, Spring, Third, 8, Left, Female, Group B, 70, None, None, 
156, c5dc1aa1836825642dbfad118ec29d80, ADMIN-UCSF-mk039, 54, 5 - 4, Math Fluency, 1, 1, 1279.0, 168827.0, None, None, None, 169144.0, 167863.0, 169144.0, May 12, 2017, 9:12:22 AM, 33142000, Spring, Third, 8, Left, Female, Group B, 70, None, None, 
157, c5dc1aa1836825642dbfad118ec29d80, ADMIN-UCSF-mk039, 55, 10 - 3, Math Fluency, 7, 7, 1612.0, 171431.0, None, None, None, 171759.0, 170146.0, 171759.0, May 12, 2017, 9:12:24 AM, 33144000, Spring, Third, 8, Left, Female, Group B, 70, None, None, 
158, c5dc1aa1836825642dbfad118ec29d80, ADMIN-UCSF-mk039, 56, 4 + 7, Math Fluency, 11, 11, 1664.0, 173914.0, 174076.0, None, None, 174427.0, 172761.0, 174427.0, May 12, 2017, 9:12:27 AM, 33147000, Spring, Third, 8, Left, Female, Group B, 70, None, None, 
159, c5dc1aa1836825642dbfad118ec29d80, ADMIN-UCSF-mk039, 57, 6 + 3, Math Fluency, 9, 9, 1831.0, 177043.0, None, None, None, 177261.0, 175428.0, 177261.0, May 12, 2017, 9:12:30 AM, 33150000, Spring, Third, 8, Left, Female, Group B, 70, None, None, 
160, c5dc1aa1836825642dbfad118ec29d80, ADMIN-UCSF-mk039, 58, 4 + 8, Math Fluency, 12, 12, 1480.0, 179331.0, 179510.0, None, None, 179744.0, 178262.0, 179744.0, May 12, 2017, 9:12:32 AM, 33152000, Spring, Third, 8, Left, Female, Group B, 70, None, None, 
160, c5dc1aa1836825642dbfad118ec29d80, ADMIN-UCSF-mk039, 0, A rabbit can hop, Reading Fluency Block 0, NO, YES, 1671.0, None, None, None, None, None, 0.0, 1672.0, May 12, 2017, 9:15:30 AM, 33330000, Spring, Third, 8, Left, Female, Group B, 70, None, None, None
161, c5dc1aa1836825642dbfad118ec29d80, ADMIN-UCSF-mk039, 1, People like to eat milk, Reading Fluency Block 0, NO, NO, 1706.0, None, None, None, None, None, 2675.0, 4382.0, May 12, 2017, 9:15:32 AM, 33332000, Spring, Third, 8, Left, Female, Group B, 70, None, None, None
162, c5dc1aa1836825642dbfad118ec29d80, ADMIN-UCSF-mk039, 2, Dogs have six legs, Reading Fluency Block 0, NO, NO, 1431.0, None, None, None, None, None, 5383.0, 6815.0, May 12, 2017, 9:15:35 AM, 33335000, Spring, Third, 8, Left, Female, Group B, 70, None, None, None
163, c5dc1aa1836825642dbfad118ec29d80, ADMIN-UCSF-mk039, 3, A bus has a driver, Reading Fluency Block 0, YES, YES, 1063.0, None, None, None, None, None, 7818.0, 8882.0, May 12, 2017, 9:15:37 AM, 33337000, Spring, Third, 8, Left, Female, Group B, 70, None, None, None
164, c5dc1aa1836825642dbfad118ec29d80, ADMIN-UCSF-mk039, 4, All people have long hair, Reading Fluency Block 0, NO, NO, 1352.0, None, None, None, None, None, 9884.0, 11238.0, May 12, 2017, 9:15:39 AM, 33339000, Spring, Third, 8, Left, Female, Group B, 70, None, None, None
165, c5dc1aa1836825642dbfad118ec29d80, ADMIN-UCSF-mk039, 5, The color of grass is purple, Reading Fluency Block 0, NO, NO, 898.0, None, None, None, None, None, 12239.0, 13138.0, May 12, 2017, 9:15:41 AM, 33341000, Spring, Third, 8, Left, Female, Group B, 70, None, None, None
166, c5dc1aa1836825642dbfad118ec29d80, ADMIN-UCSF-mk039, 6, A clock shows the time, Reading Fluency Block 0, YES, YES, 926.0, None, None, None, None, None, 14139.0, 15066.0, May 12, 2017, 9:15:43 AM, 33343000, Spring, Third, 8, Left, Female, Group B, 70, None, None, None
167, c5dc1aa1836825642dbfad118ec29d80, ADMIN-UCSF-mk039, 7, Dogs have ears, Reading Fluency Block 0, YES, YES, 881.0, None, None, None, None, None, 16068.0, 16949.0, May 12, 2017, 9:15:45 AM, 33345000, Spring, Third, 8, Left, Female, Group B, 70, None, None, None
168, c5dc1aa1836825642dbfad118ec29d80, ADMIN-UCSF-mk039, 8, A moth has nine wings, Reading Fluency Block 0, NO, NO, 1098.0, None, None, None, None, None, 17951.0, 19050.0, May 12, 2017, 9:15:47 AM, 33347000, Spring, Third, 8, Left, Female, Group B, 70, None, None, None
169, c5dc1aa1836825642dbfad118ec29d80, ADMIN-UCSF-mk039, 9, The sky is always brown and purple, Reading Fluency Block 0, NO, NO, 1080.0, None, None, None, None, None, 20053.0, 21133.0, May 12, 2017, 9:15:49 AM, 33349000, Spring, Third, 8, Left, Female, Group B, 70, None, None, None
170, c5dc1aa1836825642dbfad118ec29d80, ADMIN-UCSF-mk039, 10, A room in a building has a floor, Reading Fluency Block 1, YES, YES, 1714.0, None, None, None, None, None, 20053.0, 23850.0, May 12, 2017, 9:15:52 AM, 33352000, Spring, Third, 8, Left, Female, Group B, 70, None, None, None
171, c5dc1aa1836825642dbfad118ec29d80, ADMIN-UCSF-mk039, 11, A plane goes on the street, Reading Fluency Block 1, NO, NO, 1581.0, None, None, None, None, None, 24852.0, 26433.0, May 12, 2017, 9:15:54 AM, 33354000, Spring, Third, 8, Left, Female, Group B, 70, None, None, None
172, c5dc1aa1836825642dbfad118ec29d80, ADMIN-UCSF-mk039, 12, A train has wings, Reading Fluency Block 1, YES, NO, 1564.0, None, None, None, None, None, 27435.0, 29001.0, May 12, 2017, 9:15:57 AM, 33357000, Spring, Third, 8, Left, Female, Group B, 70, None, None, None
173, c5dc1aa1836825642dbfad118ec29d80, ADMIN-UCSF-mk039, 13, A tree grows in the air, Reading Fluency Block 1, NO, NO, 1435.0, None, None, None, None, None, 30002.0, 31438.0, May 12, 2017, 9:15:59 AM, 33359000, Spring, Third, 8, Left, Female, Group B, 70, None, None, None
174, c5dc1aa1836825642dbfad118ec29d80, ADMIN-UCSF-mk039, 14, An ice cube is warm, Reading Fluency Block 1, NO, NO, 1530.0, None, None, None, None, None, 32441.0, 33972.0, May 12, 2017, 9:16:02 AM, 33362000, Spring, Third, 8, Left, Female, Group B, 70, None, None, None
175, c5dc1aa1836825642dbfad118ec29d80, ADMIN-UCSF-mk039, 15, A carrot is to bite, Reading Fluency Block 1, YES, YES, 1060.0, None, None, None, None, None, 34974.0, 36035.0, May 12, 2017, 9:16:04 AM, 33364000, Spring, Third, 8, Left, Female, Group B, 70, None, None, None
176, c5dc1aa1836825642dbfad118ec29d80, ADMIN-UCSF-mk039, 16, The color of water is pink, Reading Fluency Block 1, NO, NO, 1563.0, None, None, None, None, None, 37037.0, 38601.0, May 12, 2017, 9:16:07 AM, 33367000, Spring, Third, 8, Left, Female, Group B, 70, None, None, None
177, c5dc1aa1836825642dbfad118ec29d80, ADMIN-UCSF-mk039, 17, A dog may bark at a squirrel, Reading Fluency Block 1, YES, YES, 1951.0, None, None, None, None, None, 39604.0, 41555.0, May 12, 2017, 9:16:09 AM, 33369000, Spring, Third, 8, Left, Female, Group B, 70, None, None, None
178, c5dc1aa1836825642dbfad118ec29d80, ADMIN-UCSF-mk039, 18, Flies are pretty big, Reading Fluency Block 1, NO, NO, 1064.0, None, None, None, None, None, 42557.0, 43622.0, May 12, 2017, 9:16:12 AM, 33372000, Spring, Third, 8, Left, Female, Group B, 70, None, None, None
179, c5dc1aa1836825642dbfad118ec29d80, ADMIN-UCSF-mk039, 19, Wednesday is a day of the week, Reading Fluency Block 1, YES, YES, 960.0, None, None, None, None, None, 44624.0, 45585.0, May 12, 2017, 9:16:14 AM, 33374000, Spring, Third, 8, Left, Female, Group B, 70, None, None, None
180, c5dc1aa1836825642dbfad118ec29d80, ADMIN-UCSF-mk039, 20, A fish may swim in a lake, Reading Fluency Block 2, YES, YES, 1030.0, None, None, None, None, None, 44624.0, 47618.0, May 12, 2017, 9:16:16 AM, 33376000, Spring, Third, 8, Left, Female, Group B, 70, None, None, None
181, c5dc1aa1836825642dbfad118ec29d80, ADMIN-UCSF-mk039, 21, Most cats can fly over the tops of buildings, Reading Fluency Block 2, NO, NO, 1399.0, None, None, None, None, None, 48619.0, 50019.0, May 12, 2017, 9:16:18 AM, 33378000, Spring, Third, 8, Left, Female, Group B, 70, None, None, None
182, c5dc1aa1836825642dbfad118ec29d80, ADMIN-UCSF-mk039, 22, Fish live in cages, Reading Fluency Block 2, YES, NO, 1914.0, None, None, None, None, None, 51021.0, 52936.0, May 12, 2017, 9:16:21 AM, 33381000, Spring, Third, 8, Left, Female, Group B, 70, None, None, None
183, c5dc1aa1836825642dbfad118ec29d80, ADMIN-UCSF-mk039, 23, February is the month after November, Reading Fluency Block 2, NO, NO, 2014.0, None, None, None, None, None, 53938.0, 55953.0, May 12, 2017, 9:16:24 AM, 33384000, Spring, Third, 8, Left, Female, Group B, 70, None, None, None
184, c5dc1aa1836825642dbfad118ec29d80, ADMIN-UCSF-mk039, 24, Some people like to go to the pool on hot days, Reading Fluency Block 2, YES, YES, 1301.0, None, None, None, None, None, 56954.0, 58257.0, May 12, 2017, 9:16:26 AM, 33386000, Spring, Third, 8, Left, Female, Group B, 70, None, None, None
185, c5dc1aa1836825642dbfad118ec29d80, ADMIN-UCSF-mk039, 25, A spider may live in a tree, Reading Fluency Block 2, NO, YES, 926.0, None, None, None, None, None, 59259.0, 60186.0, May 12, 2017, 9:16:28 AM, 33388000, Spring, Third, 8, Left, Female, Group B, 70, None, None, None
186, c5dc1aa1836825642dbfad118ec29d80, ADMIN-UCSF-mk039, 26, A shoe goes on your arm, Reading Fluency Block 2, NO, NO, 1798.0, None, None, None, None, None, 61188.0, 62986.0, May 12, 2017, 9:16:31 AM, 33391000, Spring, Third, 8, Left, Female, Group B, 70, None, None, None
187, c5dc1aa1836825642dbfad118ec29d80, ADMIN-UCSF-mk039, 27, A marker is for writing, Reading Fluency Block 2, YES, YES, 948.0, None, None, None, None, None, 63988.0, 64937.0, May 12, 2017, 9:16:33 AM, 33393000, Spring, Third, 8, Left, Female, Group B, 70, None, None, None
188, c5dc1aa1836825642dbfad118ec29d80, ADMIN-UCSF-mk039, 28, The majority of doors are made of wood, Reading Fluency Block 2, YES, YES, 2014.0, None, None, None, None, None, 65939.0, 67954.0, May 12, 2017, 9:16:36 AM, 33396000, Spring, Third, 8, Left, Female, Group B, 70, None, None, None
189, c5dc1aa1836825642dbfad118ec29d80, ADMIN-UCSF-mk039, 29, Basketball is a game that some people like to play, Reading Fluency Block 2, YES, YES, 1180.0, None, None, None, None, None, 68956.0, 70137.0, May 12, 2017, 9:16:38 AM, 33398000, Spring, Third, 8, Left, Female, Group B, 70, None, None, None
190, c5dc1aa1836825642dbfad118ec29d80, ADMIN-UCSF-mk039, 30, You can drink soda through a straw, Reading Fluency Block 3, YES, YES, 1198.0, None, None, None, None, None, 68956.0, 72337.0, May 12, 2017, 9:16:40 AM, 33400000, Spring, Third, 8, Left, Female, Group B, 70, None, None, None
191, c5dc1aa1836825642dbfad118ec29d80, ADMIN-UCSF-mk039, 31, Motorcycles have two wheels, Reading Fluency Block 3, YES, YES, 1352.0, None, None, None, None, None, 73339.0, 74692.0, May 12, 2017, 9:16:43 AM, 33403000, Spring, Third, 8, Left, Female, Group B, 70, None, None, None
192, c5dc1aa1836825642dbfad118ec29d80, ADMIN-UCSF-mk039, 32, Most hills are very flat on top, Reading Fluency Block 3, NO, NO, 1560.0, None, None, None, None, None, 75694.0, 77255.0, May 12, 2017, 9:16:45 AM, 33405000, Spring, Third, 8, Left, Female, Group B, 70, None, None, None
193, c5dc1aa1836825642dbfad118ec29d80, ADMIN-UCSF-mk039, 33, July is the first day of the week, Reading Fluency Block 3, NO, NO, 2467.0, None, None, None, None, None, 78258.0, 80726.0, May 12, 2017, 9:16:49 AM, 33409000, Spring, Third, 8, Left, Female, Group B, 70, None, None, None
194, c5dc1aa1836825642dbfad118ec29d80, ADMIN-UCSF-mk039, 34, The phone book is used to help you find routes, Reading Fluency Block 3, YES, NO, 3077.0, None, None, None, None, None, 81728.0, 84806.0, May 12, 2017, 9:16:53 AM, 33413000, Spring, Third, 8, Left, Female, Group B, 70, None, None, None
195, c5dc1aa1836825642dbfad118ec29d80, ADMIN-UCSF-mk039, 35, People stand on their heads at the dinner table, Reading Fluency Block 3, NO, NO, 2897.0, None, None, None, None, None, 85807.0, 88705.0, May 12, 2017, 9:16:57 AM, 33417000, Spring, Third, 8, Left, Female, Group B, 70, None, None, None
196, c5dc1aa1836825642dbfad118ec29d80, ADMIN-UCSF-mk039, 36, An eagle may build a nest, Reading Fluency Block 3, YES, YES, 1053.0, None, None, None, None, None, 89707.0, 90761.0, May 12, 2017, 9:16:59 AM, 33419000, Spring, Third, 8, Left, Female, Group B, 70, None, None, None
197, c5dc1aa1836825642dbfad118ec29d80, ADMIN-UCSF-mk039, 37, A lake by the park may have sand, Reading Fluency Block 3, YES, YES, 2447.0, None, None, None, None, None, 91763.0, 94210.0, May 12, 2017, 9:17:02 AM, 33422000, Spring, Third, 8, Left, Female, Group B, 70, None, None, None
198, c5dc1aa1836825642dbfad118ec29d80, ADMIN-UCSF-mk039, 38, The sun is smaller than a tomato, Reading Fluency Block 3, NO, NO, 2947.0, None, None, None, None, None, 95212.0, 98161.0, May 12, 2017, 9:17:06 AM, 33426000, Spring, Third, 8, Left, Female, Group B, 70, None, None, None
199, c5dc1aa1836825642dbfad118ec29d80, ADMIN-UCSF-mk039, 39, You can only see three colors in a rainbow, Reading Fluency Block 3, NO, YES, 1178.0, None, None, None, None, None, 99162.0, 100343.0, May 12, 2017, 9:17:08 AM, 33428000, Spring, Third, 8, Left, Female, Group B, 70, None, None, None
200, c5dc1aa1836825642dbfad118ec29d80, ADMIN-UCSF-mk039, 40, Some fish swim in ponds, Reading Fluency Block 4, YES, YES, 2382.0, None, None, None, None, None, 99162.0, 103728.0, May 12, 2017, 9:17:12 AM, 33432000, Spring, Third, 8, Left, Female, Group B, 70, None, None, None
201, c5dc1aa1836825642dbfad118ec29d80, ADMIN-UCSF-mk039, 41, People serve dinner on their doorsteps, Reading Fluency Block 4, NO, NO, 1397.0, None, None, None, None, None, 104729.0, 106127.0, May 12, 2017, 9:17:14 AM, 33434000, Spring, Third, 8, Left, Female, Group B, 70, None, None, None
202, c5dc1aa1836825642dbfad118ec29d80, ADMIN-UCSF-mk039, 42, Many rodents can make burrows, Reading Fluency Block 4, YES, YES, 1615.0, None, None, None, None, None, 107129.0, 108746.0, May 12, 2017, 9:17:17 AM, 33437000, Spring, Third, 8, Left, Female, Group B, 70, None, None, None
203, c5dc1aa1836825642dbfad118ec29d80, ADMIN-UCSF-mk039, 43, Some little children cry when they are sad, Reading Fluency Block 4, YES, YES, 1160.0, None, None, None, None, None, 109747.0, 110908.0, May 12, 2017, 9:17:19 AM, 33439000, Spring, Third, 8, Left, Female, Group B, 70, None, None, None
204, c5dc1aa1836825642dbfad118ec29d80, ADMIN-UCSF-mk039, 44, Some people buy new homes in old towns, Reading Fluency Block 4, YES, YES, 3535.0, None, None, None, None, None, 111910.0, 115446.0, May 12, 2017, 9:17:23 AM, 33443000, Spring, Third, 8, Left, Female, Group B, 70, None, None, None
205, c5dc1aa1836825642dbfad118ec29d80, ADMIN-UCSF-mk039, 45, A hospital has more than two nurses, Reading Fluency Block 4, YES, YES, 2076.0, None, None, None, None, None, 116448.0, 118525.0, May 12, 2017, 9:17:26 AM, 33446000, Spring, Third, 8, Left, Female, Group B, 70, None, None, None
206, c5dc1aa1836825642dbfad118ec29d80, ADMIN-UCSF-mk039, 46, A table has six feet, Reading Fluency Block 4, NO, NO, 2116.0, None, None, None, None, None, 119527.0, 121644.0, May 12, 2017, 9:17:30 AM, 33450000, Spring, Third, 8, Left, Female, Group B, 70, None, None, None
207, c5dc1aa1836825642dbfad118ec29d80, ADMIN-UCSF-mk039, 47, Fall is a season of the year, Reading Fluency Block 4, YES, YES, 1761.0, None, None, None, None, None, 122646.0, 124409.0, May 12, 2017, 9:17:32 AM, 33452000, Spring, Third, 8, Left, Female, Group B, 70, None, None, None
208, c5dc1aa1836825642dbfad118ec29d80, ADMIN-UCSF-mk039, 48, Some children sail sailboats on a stormy day, Reading Fluency Block 4, NO, YES, 1464.0, None, None, None, None, None, 125411.0, 126875.0, May 12, 2017, 9:17:35 AM, 33455000, Spring, Third, 8, Left, Female, Group B, 70, None, None, None
209, c5dc1aa1836825642dbfad118ec29d80, ADMIN-UCSF-mk039, 49, Some people eat soup with a spoon, Reading Fluency Block 4, YES, YES, 1736.0, None, None, None, None, None, 127878.0, 129615.0, May 12, 2017, 9:17:38 AM, 33458000, Spring, Third, 8, Left, Female, Group B, 70, None, None, None
210, c5dc1aa1836825642dbfad118ec29d80, ADMIN-UCSF-mk039, 50, A dog may bark at another dog, Reading Fluency Block 5, YES, YES, 1359.0, None, None, None, None, None, 127878.0, 131977.0, May 12, 2017, 9:17:40 AM, 33460000, Spring, Third, 8, Left, Female, Group B, 70, None, None, None
211, c5dc1aa1836825642dbfad118ec29d80, ADMIN-UCSF-mk039, 51, A fence may have a lock, Reading Fluency Block 5, YES, YES, 1368.0, None, None, None, None, None, 132979.0, 134348.0, May 12, 2017, 9:17:42 AM, 33462000, Spring, Third, 8, Left, Female, Group B, 70, None, None, None
212, c5dc1aa1836825642dbfad118ec29d80, ADMIN-UCSF-mk039, 52, Some children enjoy watching shows on television, Reading Fluency Block 5, YES, YES, 1109.0, None, None, None, None, None, 135350.0, 136460.0, May 12, 2017, 9:17:44 AM, 33464000, Spring, Third, 8, Left, Female, Group B, 70, None, None, None
213, c5dc1aa1836825642dbfad118ec29d80, ADMIN-UCSF-mk039, 53, Rubber is often used to put out flames, Reading Fluency Block 5, NO, NO, 2281.0, None, None, None, None, None, 137462.0, 139743.0, May 12, 2017, 9:17:48 AM, 33468000, Spring, Third, 8, Left, Female, Group B, 70, None, None, None
214, c5dc1aa1836825642dbfad118ec29d80, ADMIN-UCSF-mk039, 54, A bus needs water each day, Reading Fluency Block 5, NO, NO, 3452.0, None, None, None, None, None, 140745.0, 144199.0, May 12, 2017, 9:17:52 AM, 33472000, Spring, Third, 8, Left, Female, Group B, 70, None, None, None
215, c5dc1aa1836825642dbfad118ec29d80, ADMIN-UCSF-mk039, 55, A flower's petals are below the ground, Reading Fluency Block 5, NO, NO, 2396.0, None, None, None, None, None, 145201.0, 147598.0, May 12, 2017, 9:17:56 AM, 33476000, Spring, Third, 8, Left, Female, Group B, 70, None, None, None
216, c5dc1aa1836825642dbfad118ec29d80, ADMIN-UCSF-mk039, 56, A mouse is an insect that flies, Reading Fluency Block 5, NO, NO, 3398.0, None, None, None, None, None, 148600.0, 151999.0, May 12, 2017, 9:18:00 AM, 33480000, Spring, Third, 8, Left, Female, Group B, 70, None, None, None
217, c5dc1aa1836825642dbfad118ec29d80, ADMIN-UCSF-mk039, 57, Scissors are often used to read a story, Reading Fluency Block 5, NO, NO, 1576.0, None, None, None, None, None, 153001.0, 154578.0, May 12, 2017, 9:18:03 AM, 33483000, Spring, Third, 8, Left, Female, Group B, 70, None, None, None
218, c5dc1aa1836825642dbfad118ec29d80, ADMIN-UCSF-mk039, 58, Rain is often orange in color, Reading Fluency Block 5, NO, NO, 2052.0, None, None, None, None, None, 155580.0, 157632.0, May 12, 2017, 9:18:06 AM, 33486000, Spring, Third, 8, Left, Female, Group B, 70, None, None, None
219, c5dc1aa1836825642dbfad118ec29d80, ADMIN-UCSF-mk039, 59, A glove is worn on your foot, Reading Fluency Block 5, NO, NO, 1780.0, None, None, None, None, None, 158634.0, 160415.0, May 12, 2017, 9:18:08 AM, 33488000, Spring, Third, 8, Left, Female, Group B, 70, None, None, None
220, c5dc1aa1836825642dbfad118ec29d80, ADMIN-UCSF-mk039, 60, Toys may be put on a shelf in a room, Reading Fluency Block 6, YES, YES, 1693.0, None, None, None, None, None, 158634.0, 163112.0, May 12, 2017, 9:18:11 AM, 33491000, Spring, Third, 8, Left, Female, Group B, 70, None, None, None
221, c5dc1aa1836825642dbfad118ec29d80, ADMIN-UCSF-mk039, 61, Glasses help people to see, Reading Fluency Block 6, YES, YES, 2464.0, None, None, None, None, None, 164114.0, 166579.0, May 12, 2017, 9:18:15 AM, 33495000, Spring, Third, 8, Left, Female, Group B, 70, None, None, None
222, c5dc1aa1836825642dbfad118ec29d80, ADMIN-UCSF-mk039, 62, Nurses spend most of their time making clothes, Reading Fluency Block 6, NO, NO, 1800.0, None, None, None, None, None, 167582.0, 169382.0, May 12, 2017, 9:18:17 AM, 33497000, Spring, Third, 8, Left, Female, Group B, 70, None, None, None
223, c5dc1aa1836825642dbfad118ec29d80, ADMIN-UCSF-mk039, 63, Every year all cars need to have new tires, Reading Fluency Block 6, NO, NO, 2127.0, None, None, None, None, None, 170384.0, 172513.0, May 12, 2017, 9:18:20 AM, 33500000, Spring, Third, 8, Left, Female, Group B, 70, None, None, None
224, c5dc1aa1836825642dbfad118ec29d80, ADMIN-UCSF-mk039, 64, A chef works every day in a music store, Reading Fluency Block 6, NO, NO, 3065.0, None, None, None, None, None, 173515.0, 176581.0, May 12, 2017, 9:18:25 AM, 33505000, Spring, Third, 8, Left, Female, Group B, 70, None, None, None
225, c5dc1aa1836825642dbfad118ec29d80, ADMIN-UCSF-mk039, 0, The sun is round., Reading Comprehension, YES, YES, 927.0, None, None, None, None, None, 0.0, 929.0, May 12, 2017, 9:21:17 AM, 33677000, Spring, Third, 8, Left, Female, Group B, 70, None, None, None
226, c5dc1aa1836825642dbfad118ec29d80, ADMIN-UCSF-mk039, 1, A ball can see., Reading Comprehension, YES, NO, 815.0, None, None, None, None, None, 1931.0, 2747.0, May 12, 2017, 9:21:18 AM, 33678000, Spring, Third, 8, Left, Female, Group B, 70, None, None, None
227, c5dc1aa1836825642dbfad118ec29d80, ADMIN-UCSF-mk039, 2, Fish swim in a lake., Reading Comprehension, NO, YES, 110.0, None, None, None, None, None, 3749.0, 3860.0, May 12, 2017, 9:21:20 AM, 33680000, Spring, Third, 8, Left, Female, Group B, 70, None, None, None
228, c5dc1aa1836825642dbfad118ec29d80, ADMIN-UCSF-mk039, 3, A baby can row a boat., Reading Comprehension, NO, NO, 1118.0, None, None, None, None, None, 4862.0, 5981.0, May 12, 2017, 9:21:22 AM, 33682000, Spring, Third, 8, Left, Female, Group B, 70, None, None, None
229, c5dc1aa1836825642dbfad118ec29d80, ADMIN-UCSF-mk039, 4, You can clean a room., Reading Comprehension, YES, YES, 866.0, None, None, None, None, None, 6983.0, 7850.0, May 12, 2017, 9:21:23 AM, 33683000, Spring, Third, 8, Left, Female, Group B, 70, None, None, None
230, c5dc1aa1836825642dbfad118ec29d80, ADMIN-UCSF-mk039, 5, Schoolwork can be hard to do., Reading Comprehension, YES, YES, 1381.0, None, None, None, None, None, 8852.0, 10234.0, May 12, 2017, 9:21:26 AM, 33686000, Spring, Third, 8, Left, Female, Group B, 70, None, None, None
231, c5dc1aa1836825642dbfad118ec29d80, ADMIN-UCSF-mk039, 6, A hamster can have ten feet., Reading Comprehension, NO, NO, 1723.0, None, None, None, None, None, 11236.0, 12961.0, May 12, 2017, 9:21:29 AM, 33689000, Spring, Third, 8, Left, Female, Group B, 70, None, None, None
232, c5dc1aa1836825642dbfad118ec29d80, ADMIN-UCSF-mk039, 7, Friday is a month of the year., Reading Comprehension, NO, NO, 1247.0, None, None, None, None, None, 13963.0, 15212.0, May 12, 2017, 9:21:31 AM, 33691000, Spring, Third, 8, Left, Female, Group B, 70, None, None, None
233, c5dc1aa1836825642dbfad118ec29d80, ADMIN-UCSF-mk039, 8, A prince likes to eat sand for dinner., Reading Comprehension, NO, NO, 1653.0, None, None, None, None, None, 16214.0, 17869.0, May 12, 2017, 9:21:34 AM, 33694000, Spring, Third, 8, Left, Female, Group B, 70, None, None, None
234, c5dc1aa1836825642dbfad118ec29d80, ADMIN-UCSF-mk039, 9, A car requires gas., Reading Comprehension, YES, YES, 1106.0, None, None, None, None, None, 18870.0, 19978.0, May 12, 2017, 9:21:36 AM, 33696000, Spring, Third, 8, Left, Female, Group B, 70, None, None, None
235, c5dc1aa1836825642dbfad118ec29d80, ADMIN-UCSF-mk039, 10, A girl can talk on a telephone., Reading Comprehension, YES, YES, 1231.0, None, None, None, None, None, 20980.0, 22211.0, May 12, 2017, 9:21:38 AM, 33698000, Spring, Third, 8, Left, Female, Group B, 70, None, None, None
236, c5dc1aa1836825642dbfad118ec29d80, ADMIN-UCSF-mk039, 11, A banana is good to drink., Reading Comprehension, NO, NO, 1486.0, None, None, None, None, None, 23212.0, 24700.0, May 12, 2017, 9:21:40 AM, 33700000, Spring, Third, 8, Left, Female, Group B, 70, None, None, None
237, c5dc1aa1836825642dbfad118ec29d80, ADMIN-UCSF-mk039, 12, A state has a capital., Reading Comprehension, YES, YES, 1460.0, None, None, None, None, None, 25702.0, 27162.0, May 12, 2017, 9:21:43 AM, 33703000, Spring, Third, 8, Left, Female, Group B, 70, None, None, None
238, c5dc1aa1836825642dbfad118ec29d80, ADMIN-UCSF-mk039, 13, You play checkers on a journal., Reading Comprehension, NO, NO, 1247.0, None, None, None, None, None, 28164.0, 29412.0, May 12, 2017, 9:21:45 AM, 33705000, Spring, Third, 8, Left, Female, Group B, 70, None, None, None
239, c5dc1aa1836825642dbfad118ec29d80, ADMIN-UCSF-mk039, 14, You can move a mountain in a wagon., Reading Comprehension, NO, NO, 2203.0, None, None, None, None, None, 30414.0, 32617.0, May 12, 2017, 9:21:48 AM, 33708000, Spring, Third, 8, Left, Female, Group B, 70, None, None, None
240, c5dc1aa1836825642dbfad118ec29d80, ADMIN-UCSF-mk039, 15, A storm might be powerful., Reading Comprehension, YES, YES, 982.0, None, None, None, None, None, 33618.0, 34601.0, May 12, 2017, 9:21:50 AM, 33710000, Spring, Third, 8, Left, Female, Group B, 70, None, None, None
241, c5dc1aa1836825642dbfad118ec29d80, ADMIN-UCSF-mk039, 16, A lighthouse can be in a harbor., Reading Comprehension, YES, YES, 1693.0, None, None, None, None, None, 35603.0, 37296.0, May 12, 2017, 9:21:53 AM, 33713000, Spring, Third, 8, Left, Female, Group B, 70, None, None, None
242, c5dc1aa1836825642dbfad118ec29d80, ADMIN-UCSF-mk039, 17, A porcupine is fun to pet., Reading Comprehension, NO, NO, 1734.0, None, None, None, None, None, 38299.0, 40034.0, May 12, 2017, 9:21:56 AM, 33716000, Spring, Third, 8, Left, Female, Group B, 70, None, None, None
243, c5dc1aa1836825642dbfad118ec29d80, ADMIN-UCSF-mk039, 18, Chrome is always very dull., Reading Comprehension, NO, NO, 2010.0, None, None, None, None, None, 41035.0, 43047.0, May 12, 2017, 9:21:59 AM, 33719000, Spring, Third, 8, Left, Female, Group B, 70, None, None, None
244, c5dc1aa1836825642dbfad118ec29d80, ADMIN-UCSF-mk039, 19, A dog can be hard to control if a rabbit runs by., Reading Comprehension, YES, YES, 2002.0, None, None, None, None, None, 44048.0, 46051.0, May 12, 2017, 9:22:02 AM, 33722000, Spring, Third, 8, Left, Female, Group B, 70, None, None, None
245, c5dc1aa1836825642dbfad118ec29d80, ADMIN-UCSF-mk039, 20, A teenager is a boy or girl who is less than ten years old., Reading Comprehension, NO, NO, 3330.0, None, None, None, None, None, 47053.0, 50385.0, May 12, 2017, 9:22:06 AM, 33726000, Spring, Third, 8, Left, Female, Group B, 70, None, None, None
246, c5dc1aa1836825642dbfad118ec29d80, ADMIN-UCSF-mk039, 21, A student might need help doing homework., Reading Comprehension, YES, YES, 1132.0, None, None, None, None, None, 51386.0, 52519.0, May 12, 2017, 9:22:08 AM, 33728000, Spring, Third, 8, Left, Female, Group B, 70, None, None, None
247, c5dc1aa1836825642dbfad118ec29d80, ADMIN-UCSF-mk039, 22, Most people wear jackets on their feet rather than shoes., Reading Comprehension, NO, NO, 2426.0, None, None, None, None, None, 53521.0, 55948.0, May 12, 2017, 9:22:12 AM, 33732000, Spring, Third, 8, Left, Female, Group B, 70, None, None, None
248, c5dc1aa1836825642dbfad118ec29d80, ADMIN-UCSF-mk039, 23, A hawk might fly down from a tree to chase after a rabbit., Reading Comprehension, YES, YES, 2235.0, None, None, None, None, None, 56950.0, 59186.0, May 12, 2017, 9:22:15 AM, 33735000, Spring, Third, 8, Left, Female, Group B, 70, None, None, None
249, c5dc1aa1836825642dbfad118ec29d80, ADMIN-UCSF-mk039, 24, If you have a lot of school spirit you might cheer loudly at games., Reading Comprehension, YES, YES, 2497.0, None, None, None, None, None, 60189.0, 62686.0, May 12, 2017, 9:22:18 AM, 33738000, Spring, Third, 8, Left, Female, Group B, 70, None, None, None
250, c5dc1aa1836825642dbfad118ec29d80, ADMIN-UCSF-mk039, 25, You can buy popcorn in a movie theater., Reading Comprehension, YES, YES, 1481.0, None, None, None, None, None, 63688.0, 65170.0, May 12, 2017, 9:22:21 AM, 33741000, Spring, Third, 8, Left, Female, Group B, 70, None, None, None
251, c5dc1aa1836825642dbfad118ec29d80, ADMIN-UCSF-mk039, 26, A melon is a fish that is bigger than a salmon., Reading Comprehension, NO, NO, 2628.0, None, None, None, None, None, 66173.0, 68803.0, May 12, 2017, 9:22:24 AM, 33744000, Spring, Third, 8, Left, Female, Group B, 70, None, None, None
252, c5dc1aa1836825642dbfad118ec29d80, ADMIN-UCSF-mk039, 27, A bucket filled with a hundred gold coins is worthless., Reading Comprehension, YES, NO, 2460.0, None, None, None, None, None, 69805.0, 72266.0, May 12, 2017, 9:22:28 AM, 33748000, Spring, Third, 8, Left, Female, Group B, 70, None, None, None
253, c5dc1aa1836825642dbfad118ec29d80, ADMIN-UCSF-mk039, 28, A majority of votes means more than half of them., Reading Comprehension, YES, YES, 5114.0, None, None, None, None, None, 73268.0, 78383.0, May 12, 2017, 9:22:34 AM, 33754000, Spring, Third, 8, Left, Female, Group B, 70, None, None, None
254, c5dc1aa1836825642dbfad118ec29d80, ADMIN-UCSF-mk039, 29, It is unusual for the sun to rise in the morning., Reading Comprehension, NO, NO, 1914.0, None, None, None, None, None, 79384.0, 81300.0, May 12, 2017, 9:22:37 AM, 33757000, Spring, Third, 8, Left, Female, Group B, 70, None, None, None
255, c5dc1aa1836825642dbfad118ec29d80, ADMIN-UCSF-mk039, 30, A family might go to a store to purchase a new bed., Reading Comprehension, YES, YES, 3486.0, None, None, None, None, None, 82302.0, 85788.0, May 12, 2017, 9:22:41 AM, 33761000, Spring, Third, 8, Left, Female, Group B, 70, None, None, None
256, c5dc1aa1836825642dbfad118ec29d80, ADMIN-UCSF-mk039, 31, A watermelon can be too big for a small boy to lift., Reading Comprehension, YES, YES, 2326.0, None, None, None, None, None, 86790.0, 89117.0, May 12, 2017, 9:22:45 AM, 33765000, Spring, Third, 8, Left, Female, Group B, 70, None, None, None
257, c5dc1aa1836825642dbfad118ec29d80, ADMIN-UCSF-mk039, 32, A castle made in the sand at the beach is very sturdy., Reading Comprehension, NO, NO, 2283.0, None, None, None, None, None, 90120.0, 92404.0, May 12, 2017, 9:22:48 AM, 33768000, Spring, Third, 8, Left, Female, Group B, 70, None, None, None
258, c5dc1aa1836825642dbfad118ec29d80, ADMIN-UCSF-mk039, 33, Most people eat their breakfast at midnight., Reading Comprehension, YES, NO, 2349.0, None, None, None, None, None, 93406.0, 95756.0, May 12, 2017, 9:22:51 AM, 33771000, Spring, Third, 8, Left, Female, Group B, 70, None, None, None
259, c5dc1aa1836825642dbfad118ec29d80, ADMIN-UCSF-mk039, 34, A tortoise is faster than a greyhound., Reading Comprehension, NO, NO, 193.0, None, None, None, None, None, 96757.0, 96950.0, May 12, 2017, 9:22:53 AM, 33773000, Spring, Third, 8, Left, Female, Group B, 70, None, None, None
260, c5dc1aa1836825642dbfad118ec29d80, ADMIN-UCSF-mk039, 35, A test tube might break if you drop it during an experiment., Reading Comprehension, YES, YES, 1613.0, None, None, None, None, None, 97954.0, 99568.0, May 12, 2017, 9:22:55 AM, 33775000, Spring, Third, 8, Left, Female, Group B, 70, None, None, None
261, c5dc1aa1836825642dbfad118ec29d80, ADMIN-UCSF-mk039, 36, You should invite vultures to a wedding., Reading Comprehension, NO, NO, 1619.0, None, None, None, None, None, 100570.0, 102189.0, May 12, 2017, 9:22:58 AM, 33778000, Spring, Third, 8, Left, Female, Group B, 70, None, None, None
262, c5dc1aa1836825642dbfad118ec29d80, ADMIN-UCSF-mk039, 37, A tongue makes a good hammer for pounding nails into a wall., Reading Comprehension, NO, NO, 2698.0, None, None, None, None, None, 103191.0, 105890.0, May 12, 2017, 9:23:02 AM, 33782000, Spring, Third, 8, Left, Female, Group B, 70, None, None, None
263, c5dc1aa1836825642dbfad118ec29d80, ADMIN-UCSF-mk039, 38, A captain might request cheese for his chili., Reading Comprehension, NO, YES, 2242.0, None, None, None, None, None, 106891.0, 109135.0, May 12, 2017, 9:23:05 AM, 33785000, Spring, Third, 8, Left, Female, Group B, 70, None, None, None
264, c5dc1aa1836825642dbfad118ec29d80, ADMIN-UCSF-mk039, 39, A principal might talk with a girl about what she wore to school., Reading Comprehension, YES, YES, 2652.0, None, None, None, None, None, 110137.0, 112790.0, May 12, 2017, 9:23:08 AM, 33788000, Spring, Third, 8, Left, Female, Group B, 70, None, None, None
265, c5dc1aa1836825642dbfad118ec29d80, ADMIN-UCSF-mk039, 40, An astronaut is a person who sells used cars for a living., Reading Comprehension, NO, NO, 1993.0, None, None, None, None, None, 113792.0, 115786.0, May 12, 2017, 9:23:11 AM, 33791000, Spring, Third, 8, Left, Female, Group B, 70, None, None, None
266, c5dc1aa1836825642dbfad118ec29d80, ADMIN-UCSF-mk039, 41, Some people prefer to have their own pillow with them on a trip., Reading Comprehension, YES, YES, 1986.0, None, None, None, None, None, 116788.0, 118774.0, May 12, 2017, 9:23:14 AM, 33794000, Spring, Third, 8, Left, Female, Group B, 70, None, None, None
267, c5dc1aa1836825642dbfad118ec29d80, ADMIN-UCSF-mk039, 42, Your arm is connected to your elbow by your ankle., Reading Comprehension, NO, NO, 3913.0, None, None, None, None, None, 119776.0, 123690.0, May 12, 2017, 9:23:19 AM, 33799000, Spring, Third, 8, Left, Female, Group B, 70, None, None, None
268, c5dc1aa1836825642dbfad118ec29d80, ADMIN-UCSF-mk039, 43, A person who cookes a meal may go to the store to buy an ingredient., Reading Comprehension, YES, YES, 2382.0, None, None, None, None, None, 124691.0, 127074.0, May 12, 2017, 9:23:23 AM, 33803000, Spring, Third, 8, Left, Female, Group B, 70, None, None, None
269, c5dc1aa1836825642dbfad118ec29d80, ADMIN-UCSF-mk039, 44, A cowboy who rides bareback does not use a saddle., Reading Comprehension, YES, YES, 3833.0, None, None, None, None, None, 128077.0, 131910.0, May 12, 2017, 9:23:28 AM, 33808000, Spring, Third, 8, Left, Female, Group B, 70, None, None, None
270, c5dc1aa1836825642dbfad118ec29d80, ADMIN-UCSF-mk039, 45, A doctor might tell a patient to exercise more., Reading Comprehension, YES, YES, 2594.0, None, None, None, None, None, 132912.0, 135507.0, May 12, 2017, 9:23:31 AM, 33811000, Spring, Third, 8, Left, Female, Group B, 70, None, None, None
271, c5dc1aa1836825642dbfad118ec29d80, ADMIN-UCSF-mk039, 46, A passenger is a man who plays a violin., Reading Comprehension, NO, NO, 1732.0, None, None, None, None, None, 136509.0, 138242.0, May 12, 2017, 9:23:34 AM, 33814000, Spring, Third, 8, Left, Female, Group B, 70, None, None, None
272, c5dc1aa1836825642dbfad118ec29d80, ADMIN-UCSF-mk039, 47, A boy who is not a good swimmer will wear luggage to keep from sinking., Reading Comprehension, NO, NO, 4926.0, None, None, None, None, None, 139245.0, 144172.0, May 12, 2017, 9:23:40 AM, 33820000, Spring, Third, 8, Left, Female, Group B, 70, None, None, None
273, c5dc1aa1836825642dbfad118ec29d80, ADMIN-UCSF-mk039, 48, A candidate for Congress might ask you to decide to vote for her., Reading Comprehension, YES, YES, 2864.0, None, None, None, None, None, 145173.0, 148039.0, May 12, 2017, 9:23:44 AM, 33824000, Spring, Third, 8, Left, Female, Group B, 70, None, None, None
274, c5dc1aa1836825642dbfad118ec29d80, ADMIN-UCSF-mk039, 49, Bison like to dress up in costumes and go to dinner parties., Reading Comprehension, NO, NO, 2215.0, None, None, None, None, None, 149040.0, 151256.0, May 12, 2017, 9:23:47 AM, 33827000, Spring, Third, 8, Left, Female, Group B, 70, None, None, None
275, c5dc1aa1836825642dbfad118ec29d80, ADMIN-UCSF-mk039, 50, A teacher might recommend that you stop talking to a friend and do you work., Reading Comprehension, YES, YES, 2152.0, None, None, None, None, None, 152259.0, 154411.0, May 12, 2017, 9:23:50 AM, 33830000, Spring, Third, 8, Left, Female, Group B, 70, None, None, None
276, c5dc1aa1836825642dbfad118ec29d80, ADMIN-UCSF-mk039, 51, People walked on the moon in prehistoric times., Reading Comprehension, YES, NO, 1680.0, None, None, None, None, None, 155413.0, 157094.0, May 12, 2017, 9:23:53 AM, 33833000, Spring, Third, 8, Left, Female, Group B, 70, None, None, None
277, c5dc1aa1836825642dbfad118ec29d80, ADMIN-UCSF-mk039, 52, You can get some information that you need from a radio., Reading Comprehension, YES, YES, 2426.0, None, None, None, None, None, 158096.0, 160523.0, May 12, 2017, 9:23:56 AM, 33836000, Spring, Third, 8, Left, Female, Group B, 70, None, None, None
278, c5dc1aa1836825642dbfad118ec29d80, ADMIN-UCSF-mk039, 53, Playing ball can be a good way to get recreation and exercise., Reading Comprehension, YES, YES, 1729.0, None, None, None, None, None, 161527.0, 163257.0, May 12, 2017, 9:23:59 AM, 33839000, Spring, Third, 8, Left, Female, Group B, 70, None, None, None
279, c5dc1aa1836825642dbfad118ec29d80, ADMIN-UCSF-mk039, 54, Mathematics is the study of plant life., Reading Comprehension, NO, NO, 3218.0, None, None, None, None, None, 164259.0, 167478.0, May 12, 2017, 9:24:03 AM, 33843000, Spring, Third, 8, Left, Female, Group B, 70, None, None, None
280, c5dc1aa1836825642dbfad118ec29d80, ADMIN-UCSF-mk039, 55, Bubbles you blow from bubble gum are very durable., Reading Comprehension, NO, NO, 4398.0, None, None, None, None, None, 168480.0, 172878.0, May 12, 2017, 9:24:09 AM, 33849000, Spring, Third, 8, Left, Female, Group B, 70, None, None, None
281, c5dc1aa1836825642dbfad118ec29d80, ADMIN-UCSF-mk039, 56, People who build tunnels through mountains might use dynamite., Reading Comprehension, YES, YES, 2894.0, None, None, None, None, None, 173880.0, 176775.0, May 12, 2017, 9:24:12 AM, 33852000, Spring, Third, 8, Left, Female, Group B, 70, None, None, None
282, c5dc1aa1836825642dbfad118ec29d80, ADMIN-UCSF-mk039, 57, A penny is a significant sum of money., Reading Comprehension, NO, NO, 2164.0, None, None, None, None, None, 177776.0, 179941.0, May 12, 2017, 9:24:16 AM, 33856000, Spring, Third, 8, Left, Female, Group B, 70, None, None, None
282, c5dc1aa1836825642dbfad118ec29d80, ADMIN-UCSF-mk039, 0, 9, Groupitizing, 9, 9, 71342.0, None, None, None, None, None, 0.0, 2036.0, May 12, 2017, 9:26:20 AM, 33980000, Spring, Third, 8, Left, Female, Group B, 70, None, None, None
282, c5dc1aa1836825642dbfad118ec29d80, ADMIN-UCSF-mk039, 1, 1, Groupitizing, 1, 1, 1574.0, None, None, None, None, None, 3177.0, 4751.0, May 12, 2017, 9:26:22 AM, 33982000, Spring, Third, 8, Left, Female, Group B, 70, None, None, None
282, c5dc1aa1836825642dbfad118ec29d80, ADMIN-UCSF-mk039, 2, 3, Groupitizing, 3, 3, 1163.0, None, None, None, None, None, 5892.0, 7056.0, May 12, 2017, 9:26:25 AM, 33985000, Spring, Third, 8, Left, Female, Group B, 70, None, None, None
282, c5dc1aa1836825642dbfad118ec29d80, ADMIN-UCSF-mk039, 0, 7_4-3_3, Groupitizing, 7, 7, 2061.0, None, None, None, None, None, 0.0, 2063.0, May 12, 2017, 9:26:30 AM, 33990000, Spring, Third, 8, Left, Female, Group B, 70, None, None, None
283, c5dc1aa1836825642dbfad118ec29d80, ADMIN-UCSF-mk039, 1, random1_11, Groupitizing, 1, 1, 1388.0, None, None, None, None, None, 3073.0, 4462.0, May 12, 2017, 9:26:33 AM, 33993000, Spring, Third, 8, Left, Female, Group B, 70, None, None, None
284, c5dc1aa1836825642dbfad118ec29d80, ADMIN-UCSF-mk039, 2, random4_new4, Groupitizing, 4, 4, 2530.0, None, None, None, None, None, 5468.0, 8000.0, May 12, 2017, 9:26:36 AM, 33996000, Spring, Third, 8, Left, Female, Group B, 70, None, None, None
285, c5dc1aa1836825642dbfad118ec29d80, ADMIN-UCSF-mk039, 3, random1_12, Groupitizing, 1, 1, 1225.0, None, None, None, None, None, 9008.0, 10234.0, May 12, 2017, 9:26:38 AM, 33998000, Spring, Third, 8, Left, Female, Group B, 70, None, None, None
286, c5dc1aa1836825642dbfad118ec29d80, ADMIN-UCSF-mk039, 4, 7_4-3_4, Groupitizing, 7, 7, 2071.0, None, None, None, None, None, 11240.0, 13313.0, May 12, 2017, 9:26:41 AM, 34001000, Spring, Third, 8, Left, Female, Group B, 70, None, None, None
287, c5dc1aa1836825642dbfad118ec29d80, ADMIN-UCSF-mk039, 5, 8_SM4_4-3-1_4, Groupitizing, No Answer, 8, 4011.0, None, None, None, None, None, 14320.0, 18332.0, May 12, 2017, 9:26:46 AM, 34006000, Spring, Third, 8, Left, Female, Group B, 70, None, None, None
288, c5dc1aa1836825642dbfad118ec29d80, ADMIN-UCSF-mk039, 6, random6_new0, Groupitizing, 6, 6, 3320.0, None, None, None, None, None, 19342.0, 22664.0, May 12, 2017, 9:26:51 AM, 34011000, Spring, Third, 8, Left, Female, Group B, 70, None, None, None
289, c5dc1aa1836825642dbfad118ec29d80, ADMIN-UCSF-mk039, 7, random3_new4, Groupitizing, 3, 3, 1574.0, None, None, None, None, None, 23672.0, 25247.0, May 12, 2017, 9:26:53 AM, 34013000, Spring, Third, 8, Left, Female, Group B, 70, None, None, None
290, c5dc1aa1836825642dbfad118ec29d80, ADMIN-UCSF-mk039, 8, random9_new1, Groupitizing, No Answer, 9, 4011.0, None, None, None, None, None, 26254.0, 30266.0, May 12, 2017, 9:26:58 AM, 34018000, Spring, Third, 8, Left, Female, Group B, 70, None, None, None
291, c5dc1aa1836825642dbfad118ec29d80, ADMIN-UCSF-mk039, 9, 7_SM4_4-2-1_3, Groupitizing, No Answer, 7, 4011.0, None, None, None, None, None, 31272.0, 35284.0, May 12, 2017, 9:27:03 AM, 34023000, Spring, Third, 8, Left, Female, Group B, 70, None, None, None
292, c5dc1aa1836825642dbfad118ec29d80, ADMIN-UCSF-mk039, 10, random4_new0, Groupitizing, 4, 4, 1558.0, None, None, None, None, None, 36292.0, 37852.0, May 12, 2017, 9:27:06 AM, 34026000, Spring, Third, 8, Left, Female, Group B, 70, None, None, None
293, c5dc1aa1836825642dbfad118ec29d80, ADMIN-UCSF-mk039, 11, random7_new0, Groupitizing, No Answer, 7, 4011.0, None, None, None, None, None, 38858.0, 42870.0, May 12, 2017, 9:27:11 AM, 34031000, Spring, Third, 8, Left, Female, Group B, 70, None, None, None
294, c5dc1aa1836825642dbfad118ec29d80, ADMIN-UCSF-mk039, 12, random3_new6, Groupitizing, 3, 3, 1158.0, None, None, None, None, None, 43876.0, 45036.0, May 12, 2017, 9:27:13 AM, 34033000, Spring, Third, 8, Left, Female, Group B, 70, None, None, None
295, c5dc1aa1836825642dbfad118ec29d80, ADMIN-UCSF-mk039, 13, random7_new3, Groupitizing, 7, 7, 3072.0, None, None, None, None, None, 46042.0, 49116.0, May 12, 2017, 9:27:17 AM, 34037000, Spring, Third, 8, Left, Female, Group B, 70, None, None, None
296, c5dc1aa1836825642dbfad118ec29d80, ADMIN-UCSF-mk039, 14, 6_SM3_3-2-1_4, Groupitizing, No Answer, 6, 4011.0, None, None, None, None, None, 50123.0, 54135.0, May 12, 2017, 9:27:22 AM, 34042000, Spring, Third, 8, Left, Female, Group B, 70, None, None, None
297, c5dc1aa1836825642dbfad118ec29d80, ADMIN-UCSF-mk039, 15, 6_SM4_4-1-1_1, Groupitizing, 6, 6, 3357.0, None, None, None, None, None, 55142.0, 58501.0, May 12, 2017, 9:27:27 AM, 34047000, Spring, Third, 8, Left, Female, Group B, 70, None, None, None
298, c5dc1aa1836825642dbfad118ec29d80, ADMIN-UCSF-mk039, 16, 6_SM3_3-2-1_3, Groupitizing, 6, 6, 3007.0, None, None, None, None, None, 59509.0, 62518.0, May 12, 2017, 9:27:31 AM, 34051000, Spring, Third, 8, Left, Female, Group B, 70, None, None, None
299, c5dc1aa1836825642dbfad118ec29d80, ADMIN-UCSF-mk039, 17, 8_SM3_3-3-2_5, Groupitizing, 8, 8, 3545.0, None, None, None, None, None, 63520.0, 67068.0, May 12, 2017, 9:27:35 AM, 34055000, Spring, Third, 8, Left, Female, Group B, 70, None, None, None
300, c5dc1aa1836825642dbfad118ec29d80, ADMIN-UCSF-mk039, 18, 8_SM4_4-3-1_2, Groupitizing, 8, 8, 2979.0, None, None, None, None, None, 68076.0, 71055.0, May 12, 2017, 9:27:39 AM, 34059000, Spring, Third, 8, Left, Female, Group B, 70, None, None, None
301, c5dc1aa1836825642dbfad118ec29d80, ADMIN-UCSF-mk039, 19, 6_4-2_4b, Groupitizing, No Answer, 6, 4010.0, None, None, None, None, None, 72061.0, 76073.0, May 12, 2017, 9:27:44 AM, 34064000, Spring, Third, 8, Left, Female, Group B, 70, None, None, None
302, c5dc1aa1836825642dbfad118ec29d80, ADMIN-UCSF-mk039, 20, 7_SM3_3-2-2_5, Groupitizing, 5, 7, 2970.0, None, None, None, None, None, 77080.0, 80053.0, May 12, 2017, 9:27:48 AM, 34068000, Spring, Third, 8, Left, Female, Group B, 70, None, None, None
303, c5dc1aa1836825642dbfad118ec29d80, ADMIN-UCSF-mk039, 21, random4_new2, Groupitizing, 4, 4, 1891.0, None, None, None, None, None, 81060.0, 82952.0, May 12, 2017, 9:27:51 AM, 34071000, Spring, Third, 8, Left, Female, Group B, 70, None, None, None
304, c5dc1aa1836825642dbfad118ec29d80, ADMIN-UCSF-mk039, 22, 8_4-4_4, Groupitizing, 8, 8, 3376.0, None, None, None, None, None, 83958.0, 87336.0, May 12, 2017, 9:27:55 AM, 34075000, Spring, Third, 8, Left, Female, Group B, 70, None, None, None
305, c5dc1aa1836825642dbfad118ec29d80, ADMIN-UCSF-mk039, 23, 7_4-3_1, Groupitizing, 7, 7, 2322.0, None, None, None, None, None, 88346.0, 90670.0, May 12, 2017, 9:27:59 AM, 34079000, Spring, Third, 8, Left, Female, Group B, 70, None, None, None
306, c5dc1aa1836825642dbfad118ec29d80, ADMIN-UCSF-mk039, 24, random3_new3, Groupitizing, 3, 3, 1556.0, None, None, None, None, None, 91679.0, 93237.0, May 12, 2017, 9:28:01 AM, 34081000, Spring, Third, 8, Left, Female, Group B, 70, None, None, None
307, c5dc1aa1836825642dbfad118ec29d80, ADMIN-UCSF-mk039, 25, random2_new6, Groupitizing, 2, 2, 1409.0, None, None, None, None, None, 94243.0, 95654.0, May 12, 2017, 9:28:04 AM, 34084000, Spring, Third, 8, Left, Female, Group B, 70, None, None, None
308, c5dc1aa1836825642dbfad118ec29d80, ADMIN-UCSF-mk039, 26, 6_SM4_4-1-1_3, Groupitizing, 6, 6, 2847.0, None, None, None, None, None, 96659.0, 99508.0, May 12, 2017, 9:28:08 AM, 34088000, Spring, Third, 8, Left, Female, Group B, 70, None, None, None
309, c5dc1aa1836825642dbfad118ec29d80, ADMIN-UCSF-mk039, 27, random6_new6, Groupitizing, 6, 6, 3622.0, None, None, None, None, None, 100514.0, 104138.0, May 12, 2017, 9:28:12 AM, 34092000, Spring, Third, 8, Left, Female, Group B, 70, None, None, None
310, c5dc1aa1836825642dbfad118ec29d80, ADMIN-UCSF-mk039, 28, random8_new1, Groupitizing, 8, 8, 3776.0, None, None, None, None, None, 105144.0, 108922.0, May 12, 2017, 9:28:17 AM, 34097000, Spring, Third, 8, Left, Female, Group B, 70, None, None, None
311, c5dc1aa1836825642dbfad118ec29d80, ADMIN-UCSF-mk039, 29, 6_4-2_4, Groupitizing, 6, 6, 3649.0, None, None, None, None, None, 109928.0, 113578.0, May 12, 2017, 9:28:22 AM, 34102000, Spring, Third, 8, Left, Female, Group B, 70, None, None, None
312, c5dc1aa1836825642dbfad118ec29d80, ADMIN-UCSF-mk039, 30, random3_new2, Groupitizing, 3, 3, 1404.0, None, None, None, None, None, 114588.0, 115994.0, May 12, 2017, 9:28:24 AM, 34104000, Spring, Third, 8, Left, Female, Group B, 70, None, None, None
313, c5dc1aa1836825642dbfad118ec29d80, ADMIN-UCSF-mk039, 31, 6_SM3_3-2-1_1, Groupitizing, 6, 6, 3037.0, None, None, None, None, None, 117003.0, 120041.0, May 12, 2017, 9:28:28 AM, 34108000, Spring, Third, 8, Left, Female, Group B, 70, None, None, None
314, c5dc1aa1836825642dbfad118ec29d80, ADMIN-UCSF-mk039, 32, 7_SM3_3-2-2_1, Groupitizing, 7, 7, 3772.0, None, None, None, None, None, 121048.0, 124823.0, May 12, 2017, 9:28:33 AM, 34113000, Spring, Third, 8, Left, Female, Group B, 70, None, None, None
315, c5dc1aa1836825642dbfad118ec29d80, ADMIN-UCSF-mk039, 33, 9_4-4-1_2, Groupitizing, 9, 9, 3640.0, None, None, None, None, None, 125829.0, 129471.0, May 12, 2017, 9:28:38 AM, 34118000, Spring, Third, 8, Left, Female, Group B, 70, None, None, None
316, c5dc1aa1836825642dbfad118ec29d80, ADMIN-UCSF-mk039, 34, 7_4-3_2, Groupitizing, 7, 7, 2362.0, None, None, None, None, None, 130477.0, 132840.0, May 12, 2017, 9:28:41 AM, 34121000, Spring, Third, 8, Left, Female, Group B, 70, None, None, None
317, c5dc1aa1836825642dbfad118ec29d80, ADMIN-UCSF-mk039, 35, 8_SM3_3-3-2_3, Groupitizing, 8, 8, 3760.0, None, None, None, None, None, 133846.0, 137608.0, May 12, 2017, 9:28:46 AM, 34126000, Spring, Third, 8, Left, Female, Group B, 70, None, None, None
318, c5dc1aa1836825642dbfad118ec29d80, ADMIN-UCSF-mk039, 36, random8_new6, Groupitizing, No Answer, 8, 4010.0, None, None, None, None, None, 138614.0, 142626.0, May 12, 2017, 9:28:51 AM, 34131000, Spring, Third, 8, Left, Female, Group B, 70, None, None, None
319, c5dc1aa1836825642dbfad118ec29d80, ADMIN-UCSF-mk039, 37, 6_SM3_3-2-1_2, Groupitizing, 8, 6, 163.0, None, None, None, None, None, 143632.0, 143796.0, May 12, 2017, 9:28:52 AM, 34132000, Spring, Third, 8, Left, Female, Group B, 70, None, None, None
320, c5dc1aa1836825642dbfad118ec29d80, ADMIN-UCSF-mk039, 38, 7_SM4_4-2-1_5, Groupitizing, 7, 7, 3237.0, None, None, None, None, None, 144803.0, 148041.0, May 12, 2017, 9:28:56 AM, 34136000, Spring, Third, 8, Left, Female, Group B, 70, None, None, None
321, c5dc1aa1836825642dbfad118ec29d80, ADMIN-UCSF-mk039, 39, 7_SM4_4-2-1_4, Groupitizing, 6, 7, 2797.0, None, None, None, None, None, 149048.0, 151847.0, May 12, 2017, 9:29:00 AM, 34140000, Spring, Third, 8, Left, Female, Group B, 70, None, None, None
322, c5dc1aa1836825642dbfad118ec29d80, ADMIN-UCSF-mk039, 40, random7_new2, Groupitizing, 7, 7, 3404.0, None, None, None, None, None, 152853.0, 156259.0, May 12, 2017, 9:29:04 AM, 34144000, Spring, Third, 8, Left, Female, Group B, 70, None, None, None
323, c5dc1aa1836825642dbfad118ec29d80, ADMIN-UCSF-mk039, 41, random7_new6, Groupitizing, 7, 7, 3225.0, None, None, None, None, None, 157266.0, 160493.0, May 12, 2017, 9:29:09 AM, 34149000, Spring, Third, 8, Left, Female, Group B, 70, None, None, None
324, c5dc1aa1836825642dbfad118ec29d80, ADMIN-UCSF-mk039, 42, 8_SM4_4-3-1_3, Groupitizing, 8, 8, 3409.0, None, None, None, None, None, 161499.0, 164909.0, May 12, 2017, 9:29:13 AM, 34153000, Spring, Third, 8, Left, Female, Group B, 70, None, None, None
325, c5dc1aa1836825642dbfad118ec29d80, ADMIN-UCSF-mk039, 43, random6_new1, Groupitizing, 6, 6, 3530.0, None, None, None, None, None, 165916.0, 169449.0, May 12, 2017, 9:29:18 AM, 34158000, Spring, Third, 8, Left, Female, Group B, 70, None, None, None
326, c5dc1aa1836825642dbfad118ec29d80, ADMIN-UCSF-mk039, 44, 5_3-1-1_2, Groupitizing, 5, 5, 3404.0, None, None, None, None, None, 170455.0, 173860.0, May 12, 2017, 9:29:22 AM, 34162000, Spring, Third, 8, Left, Female, Group B, 70, None, None, None
327, c5dc1aa1836825642dbfad118ec29d80, ADMIN-UCSF-mk039, 45, random1_2, Groupitizing, 1, 1, 1142.0, None, None, None, None, None, 174867.0, 176011.0, May 12, 2017, 9:29:24 AM, 34164000, Spring, Third, 8, Left, Female, Group B, 70, None, None, None
328, c5dc1aa1836825642dbfad118ec29d80, ADMIN-UCSF-mk039, 46, random2_new7, Groupitizing, 2, 2, 1097.0, None, None, None, None, None, 177016.0, 178114.0, May 12, 2017, 9:29:26 AM, 34166000, Spring, Third, 8, Left, Female, Group B, 70, None, None, None
329, c5dc1aa1836825642dbfad118ec29d80, ADMIN-UCSF-mk039, 47, 9_4-3-2_1, Groupitizing, 9, 9, 3956.0, None, None, None, None, None, 179120.0, 183078.0, May 12, 2017, 9:29:31 AM, 34171000, Spring, Third, 8, Left, Female, Group B, 70, None, None, None
330, c5dc1aa1836825642dbfad118ec29d80, ADMIN-UCSF-mk039, 48, 7_SM4_4-2-1_1, Groupitizing, 7, 7, 3310.0, None, None, None, None, None, 184084.0, 187395.0, May 12, 2017, 9:29:35 AM, 34175000, Spring, Third, 8, Left, Female, Group B, 70, None, None, None
331, c5dc1aa1836825642dbfad118ec29d80, ADMIN-UCSF-mk039, 49, random4_new3, Groupitizing, 4, 4, 1514.0, None, None, None, None, None, 188402.0, 189917.0, May 12, 2017, 9:29:38 AM, 34178000, Spring, Third, 8, Left, Female, Group B, 70, None, None, None
332, c5dc1aa1836825642dbfad118ec29d80, ADMIN-UCSF-mk039, 50, 6_SM4_4-1-1_2, Groupitizing, 6, 6, 3086.0, None, None, None, None, None, 190924.0, 194011.0, May 12, 2017, 9:29:42 AM, 34182000, Spring, Third, 8, Left, Female, Group B, 70, None, None, None
333, c5dc1aa1836825642dbfad118ec29d80, ADMIN-UCSF-mk039, 51, 8_SM3_3-3-2_1, Groupitizing, 8, 8, 3809.0, None, None, None, None, None, 195018.0, 198829.0, May 12, 2017, 9:29:47 AM, 34187000, Spring, Third, 8, Left, Female, Group B, 70, None, None, None
334, c5dc1aa1836825642dbfad118ec29d80, ADMIN-UCSF-mk039, 52, random4_new5, Groupitizing, 4, 4, 1563.0, None, None, None, None, None, 199836.0, 201401.0, May 12, 2017, 9:29:49 AM, 34189000, Spring, Third, 8, Left, Female, Group B, 70, None, None, None
335, c5dc1aa1836825642dbfad118ec29d80, ADMIN-UCSF-mk039, 53, 8_4-4_2, Groupitizing, 8, 8, 3024.0, None, None, None, None, None, 202407.0, 205433.0, May 12, 2017, 9:29:53 AM, 34194000, Spring, Third, 8, Left, Female, Group B, 70, None, None, None
336, c5dc1aa1836825642dbfad118ec29d80, ADMIN-UCSF-mk039, 54, 7_SM3_3-2-2_2, Groupitizing, 7, 7, 3857.0, None, None, None, None, None, 206439.0, 210297.0, May 12, 2017, 9:29:58 AM, 34198000, Spring, Third, 8, Left, Female, Group B, 70, None, None, None
337, c5dc1aa1836825642dbfad118ec29d80, ADMIN-UCSF-mk039, 55, 5_2-2-1_3, Groupitizing, 5, 5, 3041.0, None, None, None, None, None, 211303.0, 214345.0, May 12, 2017, 9:30:02 AM, 34202000, Spring, Third, 8, Left, Female, Group B, 70, None, None, None
338, c5dc1aa1836825642dbfad118ec29d80, ADMIN-UCSF-mk039, 56, 8_SM4_4-3-1_5, Groupitizing, 8, 8, 3794.0, None, None, None, None, None, 215351.0, 219147.0, May 12, 2017, 9:30:07 AM, 34207000, Spring, Third, 8, Left, Female, Group B, 70, None, None, None
339, c5dc1aa1836825642dbfad118ec29d80, ADMIN-UCSF-mk039, 57, random2_new4, Groupitizing, 2, 2, 1548.0, None, None, None, None, None, 220153.0, 221703.0, May 12, 2017, 9:30:10 AM, 34210000, Spring, Third, 8, Left, Female, Group B, 70, None, None, None
340, c5dc1aa1836825642dbfad118ec29d80, ADMIN-UCSF-mk039, 58, 8_SM3_3-3-2_4, Groupitizing, No Answer, 8, 4010.0, None, None, None, None, None, 222709.0, 226721.0, May 12, 2017, 9:30:15 AM, 34215000, Spring, Third, 8, Left, Female, Group B, 70, None, None, None
340, c5dc1aa1836825642dbfad118ec29d80, ADMIN-UCSF-mk039, 59, 8_SM3_3-3-2_2, Groupitizing, 8, 8, 4056.0, None, None, None, None, None, 222709.0, 226767.0, May 12, 2017, 9:30:15 AM, 34215000, Spring, Third, 8, Left, Female, Group B, 70, None, None, None
341, c5dc1aa1836825642dbfad118ec29d80, ADMIN-UCSF-mk039, 60, 8_4-4_4b, Groupitizing, 8, 8, 3819.0, None, None, None, None, None, 227728.0, 231548.0, May 12, 2017, 9:30:20 AM, 34220000, Spring, Third, 8, Left, Female, Group B, 70, None, None, None
342, c5dc1aa1836825642dbfad118ec29d80, ADMIN-UCSF-mk039, 61, 6_4-2_2, Groupitizing, 6, 6, 2159.0, None, None, None, None, None, 232554.0, 234715.0, May 12, 2017, 9:30:23 AM, 34223000, Spring, Third, 8, Left, Female, Group B, 70, None, None, None
343, c5dc1aa1836825642dbfad118ec29d80, ADMIN-UCSF-mk039, 62, 8_SM4_4-3-1_1, Groupitizing, 8, 8, 3159.0, None, None, None, None, None, 235722.0, 238882.0, May 12, 2017, 9:30:27 AM, 34227000, Spring, Third, 8, Left, Female, Group B, 70, None, None, None
344, c5dc1aa1836825642dbfad118ec29d80, ADMIN-UCSF-mk039, 63, random5_new1, Groupitizing, 5, 5, 2893.0, None, None, None, None, None, 239888.0, 242782.0, May 12, 2017, 9:30:31 AM, 34231000, Spring, Third, 8, Left, Female, Group B, 70, None, None, None
345, c5dc1aa1836825642dbfad118ec29d80, ADMIN-UCSF-mk039, 64, random6_new4, Groupitizing, 6, 6, 3426.0, None, None, None, None, None, 243789.0, 247216.0, May 12, 2017, 9:30:35 AM, 34235000, Spring, Third, 8, Left, Female, Group B, 70, None, None, None
346, c5dc1aa1836825642dbfad118ec29d80, ADMIN-UCSF-mk039, 65, random9_new2, Groupitizing, 9, 9, 2941.0, None, None, None, None, None, 248223.0, 251167.0, May 12, 2017, 9:30:39 AM, 34239000, Spring, Third, 8, Left, Female, Group B, 70, None, None, None
347, c5dc1aa1836825642dbfad118ec29d80, ADMIN-UCSF-mk039, 66, 7_SM3_3-2-2_3, Groupitizing, 7, 7, 2692.0, None, None, None, None, None, 252173.0, 254866.0, May 12, 2017, 9:30:43 AM, 34243000, Spring, Third, 8, Left, Female, Group B, 70, None, None, None
348, c5dc1aa1836825642dbfad118ec29d80, ADMIN-UCSF-mk039, 67, 6_4-2_3, Groupitizing, 6, 6, 3227.0, None, None, None, None, None, 255873.0, 259101.0, May 12, 2017, 9:30:47 AM, 34247000, Spring, Third, 8, Left, Female, Group B, 70, None, None, None
349, c5dc1aa1836825642dbfad118ec29d80, ADMIN-UCSF-mk039, 68, 8_4-4_3, Groupitizing, 8, 8, 3391.0, None, None, None, None, None, 260108.0, 263501.0, May 12, 2017, 9:30:52 AM, 34252000, Spring, Third, 8, Left, Female, Group B, 70, None, None, None
350, c5dc1aa1836825642dbfad118ec29d80, ADMIN-UCSF-mk039, 69, random1_18, Groupitizing, 1, 1, 1208.0, None, None, None, None, None, 264508.0, 265718.0, May 12, 2017, 9:30:54 AM, 34254000, Spring, Third, 8, Left, Female, Group B, 70, None, None, None
351, c5dc1aa1836825642dbfad118ec29d80, ADMIN-UCSF-mk039, 70, random2_new3, Groupitizing, 2, 2, 1095.0, None, None, None, None, None, 266724.0, 267821.0, May 12, 2017, 9:30:56 AM, 34256000, Spring, Third, 8, Left, Female, Group B, 70, None, None, None
352, c5dc1aa1836825642dbfad118ec29d80, ADMIN-UCSF-mk039, 71, 6_SM4_4-1-1_5, Groupitizing, 6, 6, 2789.0, None, None, None, None, None, 268827.0, 271618.0, May 12, 2017, 9:31:00 AM, 34260000, Spring, Third, 8, Left, Female, Group B, 70, None, None, None
353, c5dc1aa1836825642dbfad118ec29d80, ADMIN-UCSF-mk039, 72, random2_new1, Groupitizing, 2, 2, 1143.0, None, None, None, None, None, 272624.0, 273769.0, May 12, 2017, 9:31:02 AM, 34262000, Spring, Third, 8, Left, Female, Group B, 70, None, None, None
354, c5dc1aa1836825642dbfad118ec29d80, ADMIN-UCSF-mk039, 73, random8_new2, Groupitizing, 8, 8, 2550.0, None, None, None, None, None, 274776.0, 277327.0, May 12, 2017, 9:31:05 AM, 34265000, Spring, Third, 8, Left, Female, Group B, 70, None, None, None
355, c5dc1aa1836825642dbfad118ec29d80, ADMIN-UCSF-mk039, 74, random3_new7, Groupitizing, 3, 3, 1306.0, None, None, None, None, None, 278334.0, 279642.0, May 12, 2017, 9:31:08 AM, 34268000, Spring, Third, 8, Left, Female, Group B, 70, None, None, None
356, c5dc1aa1836825642dbfad118ec29d80, ADMIN-UCSF-mk039, 75, 6_SM3_3-2-1_5, Groupitizing, 6, 6, 3168.0, None, None, None, None, None, 280650.0, 283820.0, May 12, 2017, 9:31:12 AM, 34272000, Spring, Third, 8, Left, Female, Group B, 70, None, None, None
357, c5dc1aa1836825642dbfad118ec29d80, ADMIN-UCSF-mk039, 76, random5_new0, Groupitizing, 5, 5, 3092.0, None, None, None, None, None, 284826.0, 287920.0, May 12, 2017, 9:31:16 AM, 34276000, Spring, Third, 8, Left, Female, Group B, 70, None, None, None
358, c5dc1aa1836825642dbfad118ec29d80, ADMIN-UCSF-mk039, 77, random7_new4, Groupitizing, 7, 7, 3147.0, None, None, None, None, None, 288926.0, 292074.0, May 12, 2017, 9:31:20 AM, 34280000, Spring, Third, 8, Left, Female, Group B, 70, None, None, None
359, c5dc1aa1836825642dbfad118ec29d80, ADMIN-UCSF-mk039, 78, random6_new2, Groupitizing, 6, 6, 2427.0, None, None, None, None, None, 293080.0, 295508.0, May 12, 2017, 9:31:24 AM, 34284000, Spring, Third, 8, Left, Female, Group B, 70, None, None, None
360, c5dc1aa1836825642dbfad118ec29d80, ADMIN-UCSF-mk039, 79, 7_SM3_3-2-2_4, Groupitizing, 7, 7, 3287.0, None, None, None, None, None, 296516.0, 299804.0, May 12, 2017, 9:31:28 AM, 34288000, Spring, Third, 8, Left, Female, Group B, 70, None, None, None
361, c5dc1aa1836825642dbfad118ec29d80, ADMIN-UCSF-mk039, 80, random1_1, Groupitizing, 1, 1, 1493.0, None, None, None, None, None, 300810.0, 302304.0, May 12, 2017, 9:31:30 AM, 34290000, Spring, Third, 8, Left, Female, Group B, 70, None, None, None
362, c5dc1aa1836825642dbfad118ec29d80, ADMIN-UCSF-mk039, 81, 7_SM4_4-2-1_2, Groupitizing, 6, 7, 3627.0, None, None, None, None, None, 303311.0, 306939.0, May 12, 2017, 9:31:35 AM, 34295000, Spring, Third, 8, Left, Female, Group B, 70, None, None, None
363, c5dc1aa1836825642dbfad118ec29d80, ADMIN-UCSF-mk039, 82, random8_new4, Groupitizing, 7, 8, 3426.0, None, None, None, None, None, 307945.0, 311372.0, May 12, 2017, 9:31:39 AM, 34299000, Spring, Third, 8, Left, Female, Group B, 70, None, None, None
364, c5dc1aa1836825642dbfad118ec29d80, ADMIN-UCSF-mk039, 83, 6_4-2_1, Groupitizing, 6, 6, 3708.0, None, None, None, None, None, 312379.0, 316089.0, May 12, 2017, 9:31:44 AM, 34304000, Spring, Third, 8, Left, Female, Group B, 70, None, None, None
365, c5dc1aa1836825642dbfad118ec29d80, ADMIN-UCSF-mk039, 84, random8_new0, Groupitizing, No Answer, 8, 4011.0, None, None, None, None, None, 317095.0, 321107.0, May 12, 2017, 9:31:49 AM, 34309000, Spring, Third, 8, Left, Female, Group B, 70, None, None, None
