Participant Id,Time Gameplayed Utc,Time Sent Utc,Detail,Condition,Trial Number,Correct Button,Displayed Cue,First Button,Flanking Cue,Late Response,Response Time,Response Window,Second Button,Trial Type
adminucsfjy0523,2019-05-24T00:20:48.689Z,2019-05-24T00:20:48.689Z,,default,0,1,A,YES,A,0,1200,5000,NO,CONGRUENT
adminucsfjy0523,2019-05-24T00:20:48.689Z,2019-05-24T00:20:48.689Z,,default,1,1,A,YES,B,0,833,5000,NO,INCONGRUENT
adminucsfjy0523,2019-05-24T00:20:48.689Z,2019-05-24T00:20:48.689Z,,default,2,1,B,NO,A,0,600,5000,YES,INCONGRUENT
adminucsfjy0523,2019-05-24T00:20:48.689Z,2019-05-24T00:20:48.689Z,,default,3,1,A,YES,B,0,550,5000,NO,INCONGRUENT
adminucsfjy0523,2019-05-24T00:20:48.689Z,2019-05-24T00:20:48.689Z,,default,4,1,B,NO,B,0,484,5000,YES,CONGRUENT
adminucsfjy0523,2019-05-24T00:20:48.689Z,2019-05-24T00:20:48.689Z,,default,5,1,B,NO,B,0,533,5000,YES,CONGRUENT
adminucsfjy0523,2019-05-24T00:21:02.400Z,2019-05-24T00:21:02.400Z,,default,0,1,A,YES,A,0,433,675,NO,CONGRUENT
adminucsfjy0523,2019-05-24T00:21:02.400Z,2019-05-24T00:21:02.400Z,,default,1,1,A,YES,A,0,434,665,NO,CONGRUENT
adminucsfjy0523,2019-05-24T00:21:02.400Z,2019-05-24T00:21:02.400Z,,default,2,0,A,NO,B,0,433,675,YES,INCONGRUENT
adminucsfjy0523,2019-05-24T00:21:02.400Z,2019-05-24T00:21:02.400Z,,default,3,0,B,NO,A,1,1083,715,YES,INCONGRUENT
adminucsfjy0523,2019-05-24T00:21:02.400Z,2019-05-24T00:21:02.400Z,,default,4,1,A,YES,A,0,483,645,NO,CONGRUENT
adminucsfjy0523,2019-05-24T00:21:02.400Z,2019-05-24T00:21:02.400Z,,default,5,0,B,YES,A,0,584,795,NO,INCONGRUENT
adminucsfjy0523,2019-05-24T00:21:02.400Z,2019-05-24T00:21:02.400Z,,default,6,1,A,YES,B,0,467,915,NO,INCONGRUENT
adminucsfjy0523,2019-05-24T00:21:02.400Z,2019-05-24T00:21:02.400Z,,default,7,0,A,YES,B,1,1250,905,NO,INCONGRUENT
adminucsfjy0523,2019-05-24T00:21:02.400Z,2019-05-24T00:21:02.400Z,,default,8,0,B,NO,B,1,1200,615,YES,CONGRUENT
adminucsfjy0523,2019-05-24T00:21:02.400Z,2019-05-24T00:21:02.400Z,,default,9,1,B,NO,A,0,533,945,YES,INCONGRUENT
adminucsfjy0523,2019-05-24T00:21:02.400Z,2019-05-24T00:21:02.400Z,,default,10,1,B,NO,A,0,533,935,YES,INCONGRUENT
adminucsfjy0523,2019-05-24T00:21:02.400Z,2019-05-24T00:21:02.400Z,,default,11,1,A,YES,A,0,466,655,NO,CONGRUENT
adminucsfjy0523,2019-05-24T00:21:02.400Z,2019-05-24T00:21:02.400Z,,default,12,1,A,YES,B,0,567,915,NO,INCONGRUENT
adminucsfjy0523,2019-05-24T00:21:02.400Z,2019-05-24T00:21:02.400Z,,default,13,1,B,NO,B,0,517,645,YES,CONGRUENT
adminucsfjy0523,2019-05-24T00:21:02.400Z,2019-05-24T00:21:02.400Z,,default,14,0,B,NO,B,1,650,625,YES,CONGRUENT
adminucsfjy0523,2019-05-24T00:21:02.400Z,2019-05-24T00:21:02.400Z,,default,15,1,B,NO,B,0,500,665,YES,CONGRUENT
adminucsfjy0523,2019-05-24T00:21:02.400Z,2019-05-24T00:21:02.400Z,,default,16,1,A,YES,B,0,583,885,NO,INCONGRUENT
adminucsfjy0523,2019-05-24T00:21:02.400Z,2019-05-24T00:21:02.400Z,,default,17,1,A,YES,B,0,517,845,NO,INCONGRUENT
adminucsfjy0523,2019-05-24T00:21:02.400Z,2019-05-24T00:21:02.400Z,,default,18,1,A,YES,A,0,367,655,NO,CONGRUENT
adminucsfjy0523,2019-05-24T00:21:02.400Z,2019-05-24T00:21:02.400Z,,default,19,1,B,NO,A,0,483,795,YES,INCONGRUENT
adminucsfjy0523,2019-05-24T00:21:02.400Z,2019-05-24T00:21:02.400Z,,default,20,0,A,YES,A,1,716,635,NO,CONGRUENT
adminucsfjy0523,2019-05-24T00:21:02.400Z,2019-05-24T00:21:02.400Z,,default,21,1,B,NO,B,0,467,675,YES,CONGRUENT
adminucsfjy0523,2019-05-24T00:21:02.400Z,2019-05-24T00:21:02.400Z,,default,22,0,B,NO,B,1,667,665,YES,CONGRUENT
adminucsfjy0523,2019-05-24T00:21:02.400Z,2019-05-24T00:21:02.400Z,,default,23,1,A,YES,B,0,667,735,NO,INCONGRUENT
adminucsfjy0523,2019-05-24T00:21:02.400Z,2019-05-24T00:21:02.400Z,,default,24,0,B,YES,B,0,667,705,NO,CONGRUENT
adminucsfjy0523,2019-05-24T00:21:02.400Z,2019-05-24T00:21:02.400Z,,default,25,1,B,NO,A,0,533,665,YES,INCONGRUENT
adminucsftestbl,2019-05-20T22:21:26.119Z,2019-05-20T22:21:26.119Z,,default,0,1,A,YES,A,0,534,5000,NO,CONGRUENT
adminucsftestbl,2019-05-20T22:21:26.119Z,2019-05-20T22:21:26.119Z,,default,1,1,A,YES,B,0,533,5000,NO,INCONGRUENT
adminucsftestbl,2019-05-20T22:21:26.119Z,2019-05-20T22:21:26.119Z,,default,2,1,A,YES,B,0,517,5000,NO,INCONGRUENT
adminucsftestbl,2019-05-20T22:21:26.119Z,2019-05-20T22:21:26.119Z,,default,3,1,B,NO,B,0,467,5000,YES,CONGRUENT
adminucsftestbl,2019-05-20T22:21:26.119Z,2019-05-20T22:21:26.119Z,,default,4,1,B,NO,B,0,417,5000,YES,CONGRUENT
adminucsftestbl,2019-05-20T22:21:26.119Z,2019-05-20T22:21:26.119Z,,default,5,1,B,NO,A,0,550,5000,YES,INCONGRUENT
adminucsftestbl,2019-05-20T22:21:40.580Z,2019-05-20T22:21:40.580Z,,default,0,1,A,YES,A,0,450,625,NO,CONGRUENT
adminucsftestbl,2019-05-20T22:21:40.580Z,2019-05-20T22:21:40.580Z,,default,1,1,A,YES,A,0,334,615,NO,CONGRUENT
adminucsftestbl,2019-05-20T22:21:40.580Z,2019-05-20T22:21:40.580Z,,default,2,1,A,YES,B,0,366,625,NO,INCONGRUENT
adminucsftestbl,2019-05-20T22:21:40.580Z,2019-05-20T22:21:40.580Z,,default,3,0,B,NO,A,1,684,615,YES,INCONGRUENT
adminucsftestbl,2019-05-20T22:21:40.580Z,2019-05-20T22:21:40.580Z,,default,4,1,A,YES,B,0,583,655,NO,INCONGRUENT
adminucsftestbl,2019-05-20T22:21:40.580Z,2019-05-20T22:21:40.580Z,,default,5,0,B,YES,B,0,150,595,NO,CONGRUENT
adminucsftestbl,2019-05-20T22:21:40.580Z,2019-05-20T22:21:40.580Z,,default,6,1,A,YES,B,0,200,645,NO,INCONGRUENT
adminucsftestbl,2019-05-20T22:21:40.580Z,2019-05-20T22:21:40.580Z,,default,7,1,B,NO,B,0,433,635,YES,CONGRUENT
adminucsftestbl,2019-05-20T22:21:40.580Z,2019-05-20T22:21:40.580Z,,default,8,1,B,NO,B,0,434,625,YES,CONGRUENT
adminucsftestbl,2019-05-20T22:21:40.580Z,2019-05-20T22:21:40.580Z,,default,9,1,A,YES,B,0,516,625,NO,INCONGRUENT
adminucsftestbl,2019-05-20T22:21:40.580Z,2019-05-20T22:21:40.580Z,,default,10,1,A,YES,A,0,400,605,NO,CONGRUENT
adminucsftestbl,2019-05-20T22:21:40.580Z,2019-05-20T22:21:40.580Z,,default,11,1,B,NO,B,0,400,575,YES,CONGRUENT
adminucsftestbl,2019-05-20T22:21:40.580Z,2019-05-20T22:21:40.580Z,,default,12,0,B,YES,A,0,400,595,NO,INCONGRUENT
adminucsftestbl,2019-05-20T22:21:40.580Z,2019-05-20T22:21:40.580Z,,default,13,1,B,NO,A,0,550,635,YES,INCONGRUENT
adminucsftestbl,2019-05-20T22:21:40.580Z,2019-05-20T22:21:40.580Z,,default,14,1,A,YES,A,0,467,535,NO,CONGRUENT
adminucsftestbl,2019-05-20T22:21:40.580Z,2019-05-20T22:21:40.580Z,,default,15,1,B,NO,A,0,483,625,YES,INCONGRUENT
adminucsftestbl,2019-05-20T22:21:40.580Z,2019-05-20T22:21:40.580Z,,default,16,1,B,NO,B,0,167,485,YES,CONGRUENT
adminucsftestbl,2019-05-20T22:21:40.580Z,2019-05-20T22:21:40.580Z,,default,17,1,B,NO,A,0,50,605,YES,INCONGRUENT
adminucsftestbl,2019-05-20T22:21:40.580Z,2019-05-20T22:21:40.580Z,,default,18,1,A,YES,A,0,134,425,NO,CONGRUENT
adminucsftestbl,2019-05-20T22:21:40.580Z,2019-05-20T22:21:40.580Z,,default,19,0,B,YES,B,0,67,355,NO,CONGRUENT
adminucsftestbl,2019-05-20T22:21:40.580Z,2019-05-20T22:21:40.580Z,,default,20,1,A,YES,B,0,467,575,NO,INCONGRUENT
adminucsftestbl,2019-05-20T22:21:40.580Z,2019-05-20T22:21:40.580Z,,default,21,0,B,YES,B,0,350,395,NO,CONGRUENT
adminucsftestbl,2019-05-20T22:21:40.580Z,2019-05-20T22:21:40.580Z,,default,22,0,A,YES,B,1,616,535,NO,INCONGRUENT
adminucsftestbl,2019-05-20T22:21:40.580Z,2019-05-20T22:21:40.580Z,,default,23,0,A,YES,A,1,534,475,NO,CONGRUENT
adminucsftestbl,2019-05-20T22:21:40.580Z,2019-05-20T22:21:40.580Z,,default,24,1,A,YES,B,0,566,575,NO,INCONGRUENT
adminucsftestbl,2019-05-20T22:21:40.580Z,2019-05-20T22:21:40.580Z,,default,25,0,B,NO,A,1,600,565,YES,INCONGRUENT
adminucsftestcg,2019-05-16T18:26:39.030Z,2019-05-16T18:26:39.030Z,,default,0,1,A,YES,A,0,883,5000,NO,CONGRUENT
adminucsftestcg,2019-05-16T18:26:39.030Z,2019-05-16T18:26:39.030Z,,default,1,1,B,NO,B,0,383,5000,YES,CONGRUENT
adminucsftestcg,2019-05-16T18:26:39.030Z,2019-05-16T18:26:39.030Z,,default,2,1,B,NO,B,0,417,5000,YES,CONGRUENT
adminucsftestcg,2019-05-16T18:26:39.030Z,2019-05-16T18:26:39.030Z,,default,3,0,A,NO,B,0,383,5000,YES,INCONGRUENT
adminucsftestcg,2019-05-16T18:26:39.030Z,2019-05-16T18:26:39.030Z,,default,4,1,A,YES,B,0,450,5000,NO,INCONGRUENT
adminucsftestcg,2019-05-16T18:26:39.030Z,2019-05-16T18:26:39.030Z,,default,5,1,B,NO,A,0,500,5000,YES,INCONGRUENT
adminucsftestcg,2019-05-16T18:26:52.911Z,2019-05-16T18:26:52.911Z,,default,0,0,A,YES,A,1,550,533,NO,CONGRUENT
adminucsftestcg,2019-05-16T18:26:52.911Z,2019-05-16T18:26:52.911Z,,default,1,1,B,NO,A,0,483,533,YES,INCONGRUENT
adminucsftestcg,2019-05-16T18:26:52.911Z,2019-05-16T18:26:52.911Z,,default,2,1,A,YES,A,0,400,573,NO,CONGRUENT
adminucsftestcg,2019-05-16T18:26:52.911Z,2019-05-16T18:26:52.911Z,,default,3,1,B,NO,B,0,317,563,YES,CONGRUENT
adminucsftestcg,2019-05-16T18:26:52.911Z,2019-05-16T18:26:52.911Z,,default,4,1,B,NO,B,0,417,543,YES,CONGRUENT
adminucsftestcg,2019-05-16T18:26:52.911Z,2019-05-16T18:26:52.911Z,,default,5,1,B,NO,A,0,350,523,YES,INCONGRUENT
adminucsftestcg,2019-05-16T18:26:52.911Z,2019-05-16T18:26:52.911Z,,default,6,1,A,YES,B,0,434,503,NO,INCONGRUENT
adminucsftestcg,2019-05-16T18:26:52.911Z,2019-05-16T18:26:52.911Z,,default,7,1,B,NO,B,0,433,513,YES,CONGRUENT
adminucsftestcg,2019-05-16T18:26:52.911Z,2019-05-16T18:26:52.911Z,,default,8,1,B,NO,B,0,416,473,YES,CONGRUENT
adminucsftestcg,2019-05-16T18:26:52.911Z,2019-05-16T18:26:52.911Z,,default,9,1,B,NO,B,0,367,423,YES,CONGRUENT
adminucsftestcg,2019-05-16T18:26:52.911Z,2019-05-16T18:26:52.911Z,,default,10,0,A,NO,B,0,333,473,YES,INCONGRUENT
adminucsftestcg,2019-05-16T18:26:52.911Z,2019-05-16T18:26:52.911Z,,default,11,1,A,YES,B,0,434,513,NO,INCONGRUENT
adminucsftestcg,2019-05-16T18:26:52.911Z,2019-05-16T18:26:52.911Z,,default,12,0,B,NO,B,1,450,363,YES,CONGRUENT
adminucsftestcg,2019-05-16T18:26:52.911Z,2019-05-16T18:26:52.911Z,,default,13,1,A,YES,B,0,433,503,NO,INCONGRUENT
adminucsftestcg,2019-05-16T18:26:52.911Z,2019-05-16T18:26:52.911Z,,default,14,0,A,YES,A,1,434,403,NO,CONGRUENT
adminucsftestcg,2019-05-16T18:26:52.911Z,2019-05-16T18:26:52.911Z,,default,15,1,A,YES,A,0,400,483,NO,CONGRUENT
adminucsftestcg,2019-05-16T18:26:52.911Z,2019-05-16T18:26:52.911Z,,default,16,1,B,NO,B,0,400,473,YES,CONGRUENT
adminucsftestcg,2019-05-16T18:26:52.911Z,2019-05-16T18:26:52.911Z,,default,17,1,A,YES,B,0,417,483,NO,INCONGRUENT
adminucsftestcg,2019-05-16T18:26:52.911Z,2019-05-16T18:26:52.911Z,,default,18,1,B,NO,A,0,433,453,YES,INCONGRUENT
adminucsftestcg,2019-05-16T18:26:52.911Z,2019-05-16T18:26:52.911Z,,default,19,1,A,YES,B,0,400,413,NO,INCONGRUENT
adminucsftestcg,2019-05-16T18:26:52.911Z,2019-05-16T18:26:52.911Z,,default,20,0,A,NO,A,0,300,453,YES,CONGRUENT
adminucsftestcg,2019-05-16T18:26:52.911Z,2019-05-16T18:26:52.911Z,,default,21,1,B,NO,A,0,167,363,YES,INCONGRUENT
adminucsftestcg,2019-05-16T18:26:52.911Z,2019-05-16T18:26:52.911Z,,default,22,1,B,NO,A,0,234,303,YES,INCONGRUENT
adminucsftestcg,2019-05-16T18:26:52.911Z,2019-05-16T18:26:52.911Z,,default,23,1,B,NO,A,0,83,233,YES,INCONGRUENT
adminucsftestcg,2019-05-16T18:26:52.911Z,2019-05-16T18:26:52.911Z,,default,24,1,A,YES,A,0,400,493,NO,CONGRUENT
adminucsftestcg,2019-05-16T18:26:52.911Z,2019-05-16T18:26:52.911Z,,default,25,0,A,YES,B,1,566,153,NO,INCONGRUENT
adminucsftestjg0515,2019-05-16T20:49:12.813Z,2019-05-16T20:49:12.813Z,,default,0,1,A,YES,A,0,833,5000,NO,CONGRUENT
adminucsftestjg0515,2019-05-16T20:49:12.813Z,2019-05-16T20:49:12.813Z,,default,1,1,B,NO,B,0,467,5000,YES,CONGRUENT
adminucsftestjg0515,2019-05-16T20:49:12.813Z,2019-05-16T20:49:12.813Z,,default,2,1,B,NO,B,0,467,5000,YES,CONGRUENT
adminucsftestjg0515,2019-05-16T20:49:12.813Z,2019-05-16T20:49:12.813Z,,default,3,1,B,NO,A,0,550,5000,YES,INCONGRUENT
adminucsftestjg0515,2019-05-16T20:49:12.813Z,2019-05-16T20:49:12.813Z,,default,4,1,A,YES,B,0,466,5000,NO,INCONGRUENT
adminucsftestjg0515,2019-05-16T20:49:12.813Z,2019-05-16T20:49:12.813Z,,default,5,1,A,YES,B,0,500,5000,NO,INCONGRUENT
adminucsftestjg0515,2019-05-16T20:49:27.318Z,2019-05-16T20:49:27.318Z,,default,0,1,A,YES,A,0,500,583,NO,CONGRUENT
adminucsftestjg0515,2019-05-16T20:49:27.318Z,2019-05-16T20:49:27.318Z,,default,1,1,A,YES,B,0,433,583,NO,INCONGRUENT
adminucsftestjg0515,2019-05-16T20:49:27.318Z,2019-05-16T20:49:27.318Z,,default,2,1,A,YES,A,0,400,573,NO,CONGRUENT
adminucsftestjg0515,2019-05-16T20:49:27.318Z,2019-05-16T20:49:27.318Z,,default,3,1,B,NO,A,0,450,573,YES,INCONGRUENT
adminucsftestjg0515,2019-05-16T20:49:27.318Z,2019-05-16T20:49:27.318Z,,default,4,1,B,NO,A,0,466,553,YES,INCONGRUENT
adminucsftestjg0515,2019-05-16T20:49:27.318Z,2019-05-16T20:49:27.318Z,,default,5,1,B,NO,B,0,467,553,YES,CONGRUENT
adminucsftestjg0515,2019-05-16T20:49:27.318Z,2019-05-16T20:49:27.318Z,,default,6,1,A,YES,B,0,417,523,NO,INCONGRUENT
adminucsftestjg0515,2019-05-16T20:49:27.318Z,2019-05-16T20:49:27.318Z,,default,7,1,B,NO,B,0,416,523,YES,CONGRUENT
adminucsftestjg0515,2019-05-16T20:49:27.318Z,2019-05-16T20:49:27.318Z,,default,8,1,B,NO,B,0,400,483,YES,CONGRUENT
adminucsftestjg0515,2019-05-16T20:49:27.318Z,2019-05-16T20:49:27.318Z,,default,9,0,B,NO,B,1,467,433,YES,CONGRUENT
adminucsftestjg0515,2019-05-16T20:49:27.318Z,2019-05-16T20:49:27.318Z,,default,10,1,A,YES,B,0,417,483,NO,INCONGRUENT
adminucsftestjg0515,2019-05-16T20:49:27.318Z,2019-05-16T20:49:27.318Z,,default,11,1,B,NO,B,0,400,473,YES,CONGRUENT
adminucsftestjg0515,2019-05-16T20:49:27.318Z,2019-05-16T20:49:27.318Z,,default,12,0,A,NO,B,0,400,433,YES,INCONGRUENT
adminucsftestjg0515,2019-05-16T20:49:27.318Z,2019-05-16T20:49:27.318Z,,default,13,1,A,YES,B,0,450,473,NO,INCONGRUENT
adminucsftestjg0515,2019-05-16T20:49:27.318Z,2019-05-16T20:49:27.318Z,,default,14,1,B,NO,B,0,383,463,YES,CONGRUENT
adminucsftestjg0515,2019-05-16T20:49:27.318Z,2019-05-16T20:49:27.318Z,,default,15,1,A,YES,A,0,367,443,NO,CONGRUENT
adminucsftestjg0515,2019-05-16T20:49:27.318Z,2019-05-16T20:49:27.318Z,,default,16,1,B,NO,B,0,350,413,YES,CONGRUENT
adminucsftestjg0515,2019-05-16T20:49:27.318Z,2019-05-16T20:49:27.318Z,,default,17,1,A,YES,B,0,383,463,NO,INCONGRUENT
adminucsftestjg0515,2019-05-16T20:49:27.318Z,2019-05-16T20:49:27.318Z,,default,18,0,A,YES,A,1,433,373,NO,CONGRUENT
adminucsftestjg0515,2019-05-16T20:49:27.318Z,2019-05-16T20:49:27.318Z,,default,19,0,A,YES,B,1,450,443,NO,INCONGRUENT
adminucsftestjg0515,2019-05-16T20:49:27.318Z,2019-05-16T20:49:27.318Z,,default,20,0,B,YES,A,0,400,483,NO,INCONGRUENT
adminucsftestjg0515,2019-05-16T20:49:27.318Z,2019-05-16T20:49:27.318Z,,default,21,0,A,YES,A,1,466,413,NO,CONGRUENT
adminucsftestjg0515,2019-05-16T20:49:27.318Z,2019-05-16T20:49:27.318Z,,default,22,0,B,NO,A,1,684,563,YES,INCONGRUENT
adminucsftestjg0515,2019-05-16T20:49:27.318Z,2019-05-16T20:49:27.318Z,,default,23,1,A,YES,A,0,450,493,NO,CONGRUENT
adminucsftestjg0515,2019-05-16T20:49:27.318Z,2019-05-16T20:49:27.318Z,,default,24,1,B,NO,A,0,483,683,YES,INCONGRUENT
adminucsftestjg0515,2019-05-16T20:49:27.318Z,2019-05-16T20:49:27.318Z,,default,25,1,B,NO,A,0,600,673,YES,INCONGRUENT
adminucsftestld,2019-05-17T18:42:31.679Z,2019-05-17T18:42:31.679Z,,default,0,1,A,YES,A,0,617,5000,NO,CONGRUENT
adminucsftestld,2019-05-17T18:42:31.679Z,2019-05-17T18:42:31.679Z,,default,1,1,B,NO,B,0,500,5000,YES,CONGRUENT
adminucsftestld,2019-05-17T18:42:31.679Z,2019-05-17T18:42:31.679Z,,default,2,1,B,NO,B,0,483,5000,YES,CONGRUENT
adminucsftestld,2019-05-17T18:42:31.679Z,2019-05-17T18:42:31.679Z,,default,3,0,B,YES,A,0,484,5000,NO,INCONGRUENT
adminucsftestld,2019-05-17T18:42:31.679Z,2019-05-17T18:42:31.679Z,,default,4,1,A,YES,B,0,633,5000,NO,INCONGRUENT
adminucsftestld,2019-05-17T18:42:31.679Z,2019-05-17T18:42:31.679Z,,default,5,1,B,NO,A,0,550,5000,YES,INCONGRUENT
adminucsftestld,2019-05-17T18:42:51.198Z,2019-05-17T18:42:51.198Z,,default,0,0,A,YES,A,1,634,625,NO,CONGRUENT
adminucsftestld,2019-05-17T18:42:51.198Z,2019-05-17T18:42:51.198Z,,default,1,1,B,NO,B,0,517,665,YES,CONGRUENT
adminucsftestld,2019-05-17T18:42:51.198Z,2019-05-17T18:42:51.198Z,,default,2,0,B,NO,A,1,717,625,YES,INCONGRUENT
adminucsftestld,2019-05-17T18:42:51.198Z,2019-05-17T18:42:51.198Z,,default,3,0,A,YES,A,1,1334,655,NO,CONGRUENT
adminucsftestld,2019-05-17T18:42:51.198Z,2019-05-17T18:42:51.198Z,,default,4,0,A,YES,B,1,700,665,NO,INCONGRUENT
adminucsftestld,2019-05-17T18:42:51.198Z,2019-05-17T18:42:51.198Z,,default,5,0,A,NO,B,1,917,745,YES,INCONGRUENT
adminucsftestld,2019-05-17T18:42:51.198Z,2019-05-17T18:42:51.198Z,,default,6,0,B,YES,B,1,816,695,NO,CONGRUENT
adminucsftestld,2019-05-17T18:42:51.198Z,2019-05-17T18:42:51.198Z,,default,7,0,A,YES,A,1,834,775,NO,CONGRUENT
adminucsftestld,2019-05-17T18:42:51.198Z,2019-05-17T18:42:51.198Z,,default,8,0,B,NO,A,1,934,865,YES,INCONGRUENT
adminucsftestld,2019-05-17T18:42:51.198Z,2019-05-17T18:42:51.198Z,,default,9,1,B,NO,B,0,483,895,YES,CONGRUENT
adminucsftestld,2019-05-17T18:42:51.198Z,2019-05-17T18:42:51.198Z,,default,10,1,B,NO,A,0,517,1025,YES,INCONGRUENT
adminucsftestld,2019-05-17T18:42:51.198Z,2019-05-17T18:42:51.198Z,,default,11,1,A,YES,A,0,483,885,NO,CONGRUENT
adminucsftestld,2019-05-17T18:42:51.198Z,2019-05-17T18:42:51.198Z,,default,12,1,B,NO,A,0,466,1015,YES,INCONGRUENT
adminucsftestld,2019-05-17T18:42:51.198Z,2019-05-17T18:42:51.198Z,,default,13,1,A,YES,B,0,483,995,NO,INCONGRUENT
adminucsftestld,2019-05-17T18:42:51.198Z,2019-05-17T18:42:51.198Z,,default,14,1,A,YES,B,0,550,965,NO,INCONGRUENT
adminucsftestld,2019-05-17T18:42:51.198Z,2019-05-17T18:42:51.198Z,,default,15,1,B,NO,B,0,400,865,YES,CONGRUENT
adminucsftestld,2019-05-17T18:42:51.198Z,2019-05-17T18:42:51.198Z,,default,16,1,A,YES,B,0,517,925,NO,INCONGRUENT
adminucsftestld,2019-05-17T18:42:51.198Z,2019-05-17T18:42:51.198Z,,default,17,1,B,NO,A,0,483,875,YES,INCONGRUENT
adminucsftestld,2019-05-17T18:42:51.198Z,2019-05-17T18:42:51.198Z,,default,18,1,B,NO,A,0,467,815,YES,INCONGRUENT
adminucsftestld,2019-05-17T18:42:51.198Z,2019-05-17T18:42:51.198Z,,default,19,1,B,NO,B,0,483,835,YES,CONGRUENT
adminucsftestld,2019-05-17T18:42:51.198Z,2019-05-17T18:42:51.198Z,,default,20,1,A,YES,A,0,466,795,NO,CONGRUENT
adminucsftestld,2019-05-17T18:42:51.198Z,2019-05-17T18:42:51.198Z,,default,21,1,B,NO,B,0,400,745,YES,CONGRUENT
adminucsftestld,2019-05-17T18:42:51.198Z,2019-05-17T18:42:51.198Z,,default,22,1,A,YES,B,0,517,745,NO,INCONGRUENT
adminucsftestld,2019-05-17T18:42:51.198Z,2019-05-17T18:42:51.198Z,,default,23,0,A,NO,B,0,383,665,YES,INCONGRUENT
adminucsftestld,2019-05-17T18:42:51.198Z,2019-05-17T18:42:51.198Z,,default,24,1,A,YES,A,0,567,685,NO,CONGRUENT
adminucsftestld,2019-05-17T18:42:51.198Z,2019-05-17T18:42:51.198Z,,default,25,1,B,NO,B,0,583,615,YES,CONGRUENT
carrollts_bshepard,2019-05-20T14:30:58.992Z,2019-05-20T14:30:58.992Z,,default,0,1,A,YES,A,0,634,5000,NO,CONGRUENT
carrollts_bshepard,2019-05-20T14:30:58.992Z,2019-05-20T14:30:58.992Z,,default,1,1,B,NO,B,0,467,5000,YES,CONGRUENT
carrollts_bshepard,2019-05-20T14:30:58.992Z,2019-05-20T14:30:58.992Z,,default,2,1,A,YES,B,0,566,5000,NO,INCONGRUENT
carrollts_bshepard,2019-05-20T14:30:58.992Z,2019-05-20T14:30:58.992Z,,default,3,1,A,YES,A,0,500,5000,NO,CONGRUENT
carrollts_bshepard,2019-05-20T14:30:58.992Z,2019-05-20T14:30:58.992Z,,default,4,0,A,NO,B,0,483,5000,YES,INCONGRUENT
carrollts_bshepard,2019-05-20T14:30:58.992Z,2019-05-20T14:30:58.992Z,,default,5,1,B,NO,A,0,566,5000,YES,INCONGRUENT
carrollts_bshepard,2019-05-20T14:31:12.190Z,2019-05-20T14:31:12.190Z,,default,0,1,A,YES,A,0,567,633,NO,CONGRUENT
carrollts_bshepard,2019-05-20T14:31:12.190Z,2019-05-20T14:31:12.190Z,,default,1,1,B,NO,B,0,533,623,YES,CONGRUENT
carrollts_bshepard,2019-05-20T14:31:12.190Z,2019-05-20T14:31:12.190Z,,default,2,1,B,NO,B,0,584,603,YES,CONGRUENT
carrollts_bshepard,2019-05-20T14:31:12.190Z,2019-05-20T14:31:12.190Z,,default,3,0,A,YES,B,1,650,633,NO,INCONGRUENT
carrollts_bshepard,2019-05-20T14:31:12.190Z,2019-05-20T14:31:12.190Z,,default,4,1,B,NO,B,0,500,573,YES,CONGRUENT
carrollts_bshepard,2019-05-20T14:31:12.190Z,2019-05-20T14:31:12.190Z,,default,5,1,A,YES,B,0,517,673,NO,INCONGRUENT
carrollts_bshepard,2019-05-20T14:31:12.190Z,2019-05-20T14:31:12.190Z,,default,6,1,A,YES,B,0,500,663,NO,INCONGRUENT
carrollts_bshepard,2019-05-20T14:31:12.190Z,2019-05-20T14:31:12.190Z,,default,7,1,B,NO,A,0,400,643,YES,INCONGRUENT
carrollts_bshepard,2019-05-20T14:31:12.190Z,2019-05-20T14:31:12.190Z,,default,8,1,B,NO,B,0,483,533,YES,CONGRUENT
carrollts_bshepard,2019-05-20T14:31:12.190Z,2019-05-20T14:31:12.190Z,,default,9,1,A,YES,A,0,450,483,NO,CONGRUENT
carrollts_bshepard,2019-05-20T14:31:12.190Z,2019-05-20T14:31:12.190Z,,default,10,1,A,YES,B,0,516,613,NO,INCONGRUENT
carrollts_bshepard,2019-05-20T14:31:12.190Z,2019-05-20T14:31:12.190Z,,default,11,1,A,YES,B,0,533,573,NO,INCONGRUENT
carrollts_bshepard,2019-05-20T14:31:12.190Z,2019-05-20T14:31:12.190Z,,default,12,0,B,NO,B,1,500,423,YES,CONGRUENT
carrollts_bshepard,2019-05-20T14:31:12.190Z,2019-05-20T14:31:12.190Z,,default,13,0,A,NO,B,1,550,523,YES,INCONGRUENT
carrollts_bshepard,2019-05-20T14:31:12.190Z,2019-05-20T14:31:12.190Z,,default,14,0,B,NO,B,1,516,463,YES,CONGRUENT
carrollts_bshepard,2019-05-20T14:31:12.190Z,2019-05-20T14:31:12.190Z,,default,15,0,B,NO,A,1,716,563,YES,INCONGRUENT
carrollts_bshepard,2019-05-20T14:31:12.190Z,2019-05-20T14:31:12.190Z,,default,16,1,A,YES,B,0,467,643,NO,INCONGRUENT
carrollts_bshepard,2019-05-20T14:31:12.190Z,2019-05-20T14:31:12.190Z,,default,17,0,B,NO,B,1,583,543,YES,CONGRUENT
carrollts_bshepard,2019-05-20T14:31:12.190Z,2019-05-20T14:31:12.190Z,,default,18,1,B,NO,A,0,584,633,YES,INCONGRUENT
carrollts_bshepard,2019-05-20T14:31:12.190Z,2019-05-20T14:31:12.190Z,,default,19,1,A,YES,A,0,517,663,NO,CONGRUENT
carrollts_bshepard,2019-05-20T14:31:12.190Z,2019-05-20T14:31:12.190Z,,default,20,1,B,NO,A,0,533,613,YES,INCONGRUENT
carrollts_bshepard,2019-05-20T14:31:12.190Z,2019-05-20T14:31:12.190Z,,default,21,1,A,YES,A,0,517,653,NO,CONGRUENT
carrollts_bshepard,2019-05-20T14:31:12.190Z,2019-05-20T14:31:12.190Z,,default,22,1,B,NO,A,0,500,583,YES,INCONGRUENT
carrollts_bshepard,2019-05-20T14:31:12.190Z,2019-05-20T14:31:12.190Z,,default,23,1,A,YES,A,0,550,633,NO,CONGRUENT
carrollts_bshepard,2019-05-20T14:31:12.190Z,2019-05-20T14:31:12.190Z,,default,24,0,B,NO,A,1,583,543,YES,INCONGRUENT
carrollts_bshepard,2019-05-20T14:31:12.190Z,2019-05-20T14:31:12.190Z,,default,25,1,A,YES,A,0,567,603,NO,CONGRUENT
hatcherfoundation_eval2_501,2019-05-20T16:57:45.284Z,2019-05-20T16:57:45.284Z,,default,0,0,C,NO,C,1,1200,800,YES,CONGRUENT
hatcherfoundation_eval2_501,2019-05-20T16:57:45.284Z,2019-05-20T16:57:45.284Z,,default,1,0,B,NO,C,0,800,800,YES,INCONGRUENT
hatcherfoundation_eval2_501,2019-05-20T16:57:45.284Z,2019-05-20T16:57:45.284Z,,default,2,0,A,NO,B,0,550,840,YES,INCONGRUENT
hatcherfoundation_eval2_501,2019-05-20T16:57:45.284Z,2019-05-20T16:57:45.284Z,,default,3,0,A,NO,D,1,1033,920,YES,INCONGRUENT
hatcherfoundation_eval2_501,2019-05-20T16:57:45.284Z,2019-05-20T16:57:45.284Z,,default,4,1,B,YES,B,0,700,840,NO,CONGRUENT
hatcherfoundation_eval2_501,2019-05-20T16:57:45.284Z,2019-05-20T16:57:45.284Z,,default,5,0,B,YES,B,1,1183,830,NO,CONGRUENT
hatcherfoundation_eval2_501,2019-05-20T16:57:45.284Z,2019-05-20T16:57:45.284Z,,default,6,1,B,YES,B,0,583,870,NO,CONGRUENT
hatcherfoundation_eval2_501,2019-05-20T16:57:45.284Z,2019-05-20T16:57:45.284Z,,default,7,1,D,NO,B,0,701,1040,YES,INCONGRUENT
hatcherfoundation_eval2_501,2019-05-20T16:57:45.284Z,2019-05-20T16:57:45.284Z,,default,8,1,C,NO,C,0,750,860,YES,CONGRUENT
hatcherfoundation_eval2_501,2019-05-20T16:57:45.284Z,2019-05-20T16:57:45.284Z,,default,9,1,C,NO,D,0,750,1030,YES,INCONGRUENT
hatcherfoundation_eval2_501,2019-05-20T16:57:45.284Z,2019-05-20T16:57:45.284Z,,default,10,1,C,NO,C,0,534,840,YES,CONGRUENT
hatcherfoundation_eval2_501,2019-05-20T16:57:45.284Z,2019-05-20T16:57:45.284Z,,default,11,1,B,YES,A,0,650,1010,NO,INCONGRUENT
hatcherfoundation_eval2_501,2019-05-20T16:57:45.284Z,2019-05-20T16:57:45.284Z,,default,12,1,A,YES,B,0,500,980,NO,INCONGRUENT
hatcherfoundation_eval2_501,2019-05-20T16:57:45.284Z,2019-05-20T16:57:45.284Z,,default,13,1,C,NO,A,0,667,940,YES,INCONGRUENT
hatcherfoundation_eval2_501,2019-05-20T16:57:45.284Z,2019-05-20T16:57:45.284Z,,default,14,1,B,YES,B,0,317,810,NO,CONGRUENT
hatcherfoundation_eval2_501,2019-05-20T16:57:45.284Z,2019-05-20T16:57:45.284Z,,default,15,1,C,NO,A,0,500,890,YES,INCONGRUENT
hatcherfoundation_eval2_501,2019-05-20T16:57:45.284Z,2019-05-20T16:57:45.284Z,,default,16,0,C,YES,C,0,417,770,NO,CONGRUENT
hatcherfoundation_eval2_501,2019-05-20T16:57:45.284Z,2019-05-20T16:57:45.284Z,,default,17,0,A,YES,B,1,916,830,NO,INCONGRUENT
hatcherfoundation_eval2_501,2019-05-20T16:57:45.284Z,2019-05-20T16:57:45.284Z,,default,18,1,D,NO,D,0,717,810,YES,CONGRUENT
hatcherfoundation_eval2_501,2019-05-20T16:57:45.284Z,2019-05-20T16:57:45.284Z,,default,19,1,B,YES,B,0,566,800,NO,CONGRUENT
hatcherfoundation_eval2_501,2019-05-20T16:57:45.284Z,2019-05-20T16:57:45.284Z,,default,20,1,C,NO,D,0,634,870,YES,INCONGRUENT
hatcherfoundation_eval2_501,2019-05-20T16:57:45.284Z,2019-05-20T16:57:45.284Z,,default,21,1,C,NO,C,0,516,780,YES,CONGRUENT
hatcherfoundation_eval2_501,2019-05-20T16:57:45.284Z,2019-05-20T16:57:45.284Z,,default,22,0,D,YES,A,0,484,860,NO,INCONGRUENT
hatcherfoundation_eval2_501,2019-05-20T16:57:45.284Z,2019-05-20T16:57:45.284Z,,default,23,0,A,YES,A,1,1601,750,NO,CONGRUENT
hatcherfoundation_eval2_501,2019-05-20T16:57:45.284Z,2019-05-20T16:57:45.284Z,,default,24,0,B,YES,B,1,983,790,NO,CONGRUENT
hatcherfoundation_eval2_702,2019-05-20T16:34:28.099Z,2019-05-20T16:34:28.099Z,,default,0,0,C,NO,C,1,1733,800,YES,CONGRUENT
hatcherfoundation_eval2_702,2019-05-20T16:34:28.099Z,2019-05-20T16:34:28.099Z,,default,1,0,A,YES,A,1,1067,840,NO,CONGRUENT
hatcherfoundation_eval2_702,2019-05-20T16:34:28.099Z,2019-05-20T16:34:28.099Z,,default,2,0,B,NO,C,1,0,800,NO,INCONGRUENT
hatcherfoundation_eval2_702,2019-05-20T16:34:28.099Z,2019-05-20T16:34:28.099Z,,default,3,0,B,NO,B,1,0,920,NO,CONGRUENT
hatcherfoundation_eval2_702,2019-05-20T16:34:28.099Z,2019-05-20T16:34:28.099Z,,default,4,1,C,NO,C,0,984,1040,YES,CONGRUENT
hatcherfoundation_eval2_702,2019-05-20T16:34:28.099Z,2019-05-20T16:34:28.099Z,,default,5,0,B,YES,A,1,967,840,NO,INCONGRUENT
hatcherfoundation_eval2_702,2019-05-20T16:34:28.099Z,2019-05-20T16:34:28.099Z,,default,6,1,A,YES,A,0,733,1030,NO,CONGRUENT
hatcherfoundation_eval2_702,2019-05-20T16:34:28.099Z,2019-05-20T16:34:28.099Z,,default,7,1,B,YES,C,0,616,920,NO,INCONGRUENT
hatcherfoundation_eval2_702,2019-05-20T16:34:28.099Z,2019-05-20T16:34:28.099Z,,default,8,0,D,NO,C,1,1366,910,YES,INCONGRUENT
hatcherfoundation_eval2_702,2019-05-20T16:34:28.099Z,2019-05-20T16:34:28.099Z,,default,9,0,D,NO,C,0,950,950,YES,INCONGRUENT
hatcherfoundation_eval2_702,2019-05-20T16:34:28.099Z,2019-05-20T16:34:28.099Z,,default,10,1,A,YES,A,0,884,1010,NO,CONGRUENT
hatcherfoundation_eval2_702,2019-05-20T16:34:28.099Z,2019-05-20T16:34:28.099Z,,default,11,0,C,YES,A,0,900,1030,NO,INCONGRUENT
hatcherfoundation_eval2_702,2019-05-20T16:34:28.099Z,2019-05-20T16:34:28.099Z,,default,12,0,D,YES,D,1,1366,980,NO,CONGRUENT
hatcherfoundation_eval2_702,2019-05-20T16:34:28.099Z,2019-05-20T16:34:28.099Z,,default,13,1,B,YES,B,0,933,1020,NO,CONGRUENT
hatcherfoundation_eval2_702,2019-05-20T16:34:28.099Z,2019-05-20T16:34:28.099Z,,default,14,1,A,YES,C,0,1099,1150,NO,INCONGRUENT
hatcherfoundation_eval2_702,2019-05-20T16:34:28.099Z,2019-05-20T16:34:28.099Z,,default,15,0,B,YES,C,1,1150,1140,NO,INCONGRUENT
hatcherfoundation_eval2_702,2019-05-20T16:34:28.099Z,2019-05-20T16:34:28.099Z,,default,16,0,D,NO,C,1,1201,1180,YES,INCONGRUENT
hatcherfoundation_eval2_702,2019-05-20T16:34:28.099Z,2019-05-20T16:34:28.099Z,,default,17,0,C,NO,C,1,1234,1010,YES,CONGRUENT
hatcherfoundation_eval2_702,2019-05-20T16:34:28.099Z,2019-05-20T16:34:28.099Z,,default,18,1,C,NO,C,0,834,1050,YES,CONGRUENT
hatcherfoundation_eval2_702,2019-05-20T16:34:28.099Z,2019-05-20T16:34:28.099Z,,default,19,1,A,YES,B,0,817,1260,NO,INCONGRUENT
hatcherfoundation_eval2_702,2019-05-20T16:34:28.099Z,2019-05-20T16:34:28.099Z,,default,20,1,B,YES,B,0,617,1040,NO,CONGRUENT
hatcherfoundation_eval2_702,2019-05-20T16:34:28.099Z,2019-05-20T16:34:28.099Z,,default,21,0,C,YES,B,0,767,1250,NO,INCONGRUENT
hatcherfoundation_eval2_702,2019-05-20T16:34:28.099Z,2019-05-20T16:34:28.099Z,,default,22,0,B,YES,B,1,1083,1020,NO,CONGRUENT
hatcherfoundation_eval2_702,2019-05-20T16:34:28.099Z,2019-05-20T16:34:28.099Z,,default,23,1,C,NO,C,0,950,1060,YES,CONGRUENT
hatcherfoundation_eval2_702,2019-05-20T16:34:28.099Z,2019-05-20T16:34:28.099Z,,default,24,1,C,NO,D,0,800,1290,YES,INCONGRUENT
joaquin_test_516,2019-05-16T18:22:26.056Z,2019-05-16T18:22:26.056Z,,default,0,1,A,YES,A,0,900,5000,NO,CONGRUENT
joaquin_test_516,2019-05-16T18:22:26.056Z,2019-05-16T18:22:26.056Z,,default,1,1,B,NO,B,0,417,5000,YES,CONGRUENT
joaquin_test_516,2019-05-16T18:22:26.056Z,2019-05-16T18:22:26.056Z,,default,2,1,B,NO,A,0,517,5000,YES,INCONGRUENT
joaquin_test_516,2019-05-16T18:22:26.056Z,2019-05-16T18:22:26.056Z,,default,3,1,B,NO,B,0,400,5000,YES,CONGRUENT
joaquin_test_516,2019-05-16T18:22:26.056Z,2019-05-16T18:22:26.056Z,,default,4,0,A,NO,B,0,350,5000,YES,INCONGRUENT
joaquin_test_516,2019-05-16T18:22:26.056Z,2019-05-16T18:22:26.056Z,,default,5,1,A,YES,B,0,417,5000,NO,INCONGRUENT
joaquin_test_516,2019-05-16T18:22:39.233Z,2019-05-16T18:22:39.233Z,,default,0,0,A,YES,A,0,517,517,NO,CONGRUENT
joaquin_test_516,2019-05-16T18:22:39.233Z,2019-05-16T18:22:39.233Z,,default,1,0,A,NO,B,0,466,517,YES,INCONGRUENT
joaquin_test_516,2019-05-16T18:22:39.233Z,2019-05-16T18:22:39.233Z,,default,2,0,A,YES,B,1,584,557,NO,INCONGRUENT
joaquin_test_516,2019-05-16T18:22:39.233Z,2019-05-16T18:22:39.233Z,,default,3,1,B,NO,B,0,416,557,YES,CONGRUENT
joaquin_test_516,2019-05-16T18:22:39.233Z,2019-05-16T18:22:39.233Z,,default,4,1,B,NO,B,0,433,547,YES,CONGRUENT
joaquin_test_516,2019-05-16T18:22:39.233Z,2019-05-16T18:22:39.233Z,,default,5,1,A,YES,A,0,467,527,NO,CONGRUENT
joaquin_test_516,2019-05-16T18:22:39.233Z,2019-05-16T18:22:39.233Z,,default,6,1,B,NO,A,0,467,637,YES,INCONGRUENT
joaquin_test_516,2019-05-16T18:22:39.233Z,2019-05-16T18:22:39.233Z,,default,7,1,A,YES,B,0,466,627,NO,INCONGRUENT
joaquin_test_516,2019-05-16T18:22:39.233Z,2019-05-16T18:22:39.233Z,,default,8,1,B,NO,B,0,383,497,YES,CONGRUENT
joaquin_test_516,2019-05-16T18:22:39.233Z,2019-05-16T18:22:39.233Z,,default,9,1,B,NO,B,0,417,457,YES,CONGRUENT
joaquin_test_516,2019-05-16T18:22:39.233Z,2019-05-16T18:22:39.233Z,,default,10,0,A,YES,A,1,416,407,NO,CONGRUENT
joaquin_test_516,2019-05-16T18:22:39.233Z,2019-05-16T18:22:39.233Z,,default,11,0,A,NO,B,0,467,607,YES,INCONGRUENT
joaquin_test_516,2019-05-16T18:22:39.233Z,2019-05-16T18:22:39.233Z,,default,12,1,A,YES,A,0,417,447,NO,CONGRUENT
joaquin_test_516,2019-05-16T18:22:39.233Z,2019-05-16T18:22:39.233Z,,default,13,1,B,NO,A,0,483,647,YES,INCONGRUENT
joaquin_test_516,2019-05-16T18:22:39.233Z,2019-05-16T18:22:39.233Z,,default,14,1,B,NO,A,0,500,637,YES,INCONGRUENT
joaquin_test_516,2019-05-16T18:22:39.233Z,2019-05-16T18:22:39.233Z,,default,15,1,A,YES,B,0,450,617,NO,INCONGRUENT
joaquin_test_516,2019-05-16T18:22:39.233Z,2019-05-16T18:22:39.233Z,,default,16,1,B,NO,B,0,383,437,YES,CONGRUENT
joaquin_test_516,2019-05-16T18:22:39.233Z,2019-05-16T18:22:39.233Z,,default,17,0,B,NO,B,0,417,417,YES,CONGRUENT
joaquin_test_516,2019-05-16T18:22:39.233Z,2019-05-16T18:22:39.233Z,,default,18,1,B,NO,A,0,384,587,YES,INCONGRUENT
joaquin_test_516,2019-05-16T18:22:39.233Z,2019-05-16T18:22:39.233Z,,default,19,1,A,YES,A,0,433,457,NO,CONGRUENT
joaquin_test_516,2019-05-16T18:22:39.233Z,2019-05-16T18:22:39.233Z,,default,20,1,A,YES,B,0,483,547,NO,INCONGRUENT
joaquin_test_516,2019-05-16T18:22:39.233Z,2019-05-16T18:22:39.233Z,,default,21,0,B,NO,B,1,450,447,YES,CONGRUENT
joaquin_test_516,2019-05-16T18:22:39.233Z,2019-05-16T18:22:39.233Z,,default,22,1,B,NO,A,0,484,497,YES,INCONGRUENT
joaquin_test_516,2019-05-16T18:22:39.233Z,2019-05-16T18:22:39.233Z,,default,23,0,A,YES,B,1,483,437,NO,INCONGRUENT
joaquin_test_516,2019-05-16T18:22:39.233Z,2019-05-16T18:22:39.233Z,,default,24,1,A,YES,A,0,433,487,NO,CONGRUENT
joaquin_test_516,2019-05-16T18:22:39.233Z,2019-05-16T18:22:39.233Z,,default,25,0,B,NO,A,1,500,477,YES,INCONGRUENT
joaquinandroid,2019-05-17T18:13:58.897Z,2019-05-17T18:13:58.897Z,,default,0,1,A,YES,A,0,950,5000,NO,CONGRUENT
joaquinandroid,2019-05-17T18:13:58.897Z,2019-05-17T18:13:58.897Z,,default,1,1,B,NO,B,0,533,5000,YES,CONGRUENT
joaquinandroid,2019-05-17T18:13:58.897Z,2019-05-17T18:13:58.897Z,,default,2,1,B,NO,B,0,567,5000,YES,CONGRUENT
joaquinandroid,2019-05-17T18:13:58.897Z,2019-05-17T18:13:58.897Z,,default,3,1,A,YES,B,0,567,5000,NO,INCONGRUENT
joaquinandroid,2019-05-17T18:13:58.897Z,2019-05-17T18:13:58.897Z,,default,4,1,A,YES,B,0,617,5000,NO,INCONGRUENT
joaquinandroid,2019-05-17T18:13:58.897Z,2019-05-17T18:13:58.897Z,,default,5,1,B,NO,A,0,1700,5000,YES,INCONGRUENT
joaquinandroid,2019-05-17T18:14:16.037Z,2019-05-17T18:14:16.037Z,,default,0,0,A,YES,A,1,717,692,NO,CONGRUENT
joaquinandroid,2019-05-17T18:14:16.037Z,2019-05-17T18:14:16.037Z,,default,1,1,A,YES,B,0,683,692,NO,INCONGRUENT
joaquinandroid,2019-05-17T18:14:16.037Z,2019-05-17T18:14:16.037Z,,default,2,0,A,YES,B,1,750,682,NO,INCONGRUENT
joaquinandroid,2019-05-17T18:14:16.037Z,2019-05-17T18:14:16.037Z,,default,3,1,B,NO,A,0,550,722,YES,INCONGRUENT
joaquinandroid,2019-05-17T18:14:16.037Z,2019-05-17T18:14:16.037Z,,default,4,1,B,NO,B,0,550,732,YES,CONGRUENT
joaquinandroid,2019-05-17T18:14:16.037Z,2019-05-17T18:14:16.037Z,,default,5,1,B,NO,A,0,533,712,YES,INCONGRUENT
joaquinandroid,2019-05-17T18:14:16.037Z,2019-05-17T18:14:16.037Z,,default,6,1,A,YES,B,0,650,692,NO,INCONGRUENT
joaquinandroid,2019-05-17T18:14:16.037Z,2019-05-17T18:14:16.037Z,,default,7,1,B,NO,B,0,567,722,YES,CONGRUENT
joaquinandroid,2019-05-17T18:14:16.037Z,2019-05-17T18:14:16.037Z,,default,8,1,B,NO,A,0,634,662,YES,INCONGRUENT
joaquinandroid,2019-05-17T18:14:16.037Z,2019-05-17T18:14:16.037Z,,default,9,0,B,NO,A,1,634,622,YES,INCONGRUENT
joaquinandroid,2019-05-17T18:14:16.037Z,2019-05-17T18:14:16.037Z,,default,10,1,A,YES,B,0,650,662,NO,INCONGRUENT
joaquinandroid,2019-05-17T18:14:16.037Z,2019-05-17T18:14:16.037Z,,default,11,1,A,YES,A,0,616,702,NO,CONGRUENT
joaquinandroid,2019-05-17T18:14:16.037Z,2019-05-17T18:14:16.037Z,,default,12,0,A,NO,B,1,0,652,NO,INCONGRUENT
joaquinandroid,2019-05-17T18:14:16.037Z,2019-05-17T18:14:16.037Z,,default,13,0,B,NO,B,1,700,672,YES,CONGRUENT
joaquinandroid,2019-05-17T18:14:16.037Z,2019-05-17T18:14:16.037Z,,default,14,0,B,NO,B,1,1234,712,YES,CONGRUENT
joaquinandroid,2019-05-17T18:14:16.037Z,2019-05-17T18:14:16.037Z,,default,15,1,B,NO,A,0,650,692,YES,INCONGRUENT
joaquinandroid,2019-05-17T18:14:16.037Z,2019-05-17T18:14:16.037Z,,default,16,1,A,YES,B,0,500,682,NO,INCONGRUENT
joaquinandroid,2019-05-17T18:14:16.037Z,2019-05-17T18:14:16.037Z,,default,17,1,A,YES,A,0,683,792,NO,CONGRUENT
joaquinandroid,2019-05-17T18:14:16.037Z,2019-05-17T18:14:16.037Z,,default,18,1,B,NO,B,0,500,782,YES,CONGRUENT
joaquinandroid,2019-05-17T18:14:16.037Z,2019-05-17T18:14:16.037Z,,default,19,1,A,YES,B,0,484,662,NO,INCONGRUENT
joaquinandroid,2019-05-17T18:14:16.037Z,2019-05-17T18:14:16.037Z,,default,20,1,B,NO,B,0,467,762,YES,CONGRUENT
joaquinandroid,2019-05-17T18:14:16.037Z,2019-05-17T18:14:16.037Z,,default,21,1,A,YES,A,0,384,732,NO,CONGRUENT
joaquinandroid,2019-05-17T18:14:16.037Z,2019-05-17T18:14:16.037Z,,default,22,1,A,YES,A,0,500,692,NO,CONGRUENT
joaquinandroid,2019-05-17T18:14:16.037Z,2019-05-17T18:14:16.037Z,,default,23,1,B,NO,A,0,483,632,YES,INCONGRUENT
joaquinandroid,2019-05-17T18:14:16.037Z,2019-05-17T18:14:16.037Z,,default,24,0,B,NO,B,1,650,642,YES,CONGRUENT
joaquinandroid,2019-05-17T18:14:16.037Z,2019-05-17T18:14:16.037Z,,default,25,1,A,YES,A,0,417,682,NO,CONGRUENT
rc,2019-05-17T18:42:06.169Z,2019-05-17T18:42:06.169Z,,default,0,1,A,YES,A,0,4650,5000,NO,CONGRUENT
rc,2019-05-17T18:42:31.412Z,2019-05-17T18:42:31.412Z,,default,0,1,A,YES,A,0,800,5000,NO,CONGRUENT
rc,2019-05-17T18:42:31.412Z,2019-05-17T18:42:31.412Z,,default,1,1,B,NO,B,0,617,5000,YES,CONGRUENT
rc,2019-05-17T18:42:31.412Z,2019-05-17T18:42:31.412Z,,default,2,1,B,NO,B,0,467,5000,YES,CONGRUENT
rc,2019-05-17T18:42:31.412Z,2019-05-17T18:42:31.412Z,,default,3,1,B,NO,A,0,867,5000,YES,INCONGRUENT
rc,2019-05-17T18:42:31.412Z,2019-05-17T18:42:31.412Z,,default,4,1,A,YES,B,0,566,5000,NO,INCONGRUENT
rc,2019-05-17T18:42:31.412Z,2019-05-17T18:42:31.412Z,,default,5,1,A,YES,B,0,533,5000,NO,INCONGRUENT
rc,2019-05-17T18:42:45.548Z,2019-05-17T18:42:45.548Z,,default,0,0,A,YES,A,1,867,691,NO,CONGRUENT
rc,2019-05-17T18:42:45.548Z,2019-05-17T18:42:45.548Z,,default,1,0,A,NO,A,1,817,731,YES,CONGRUENT
rc,2019-05-17T18:42:45.548Z,2019-05-17T18:42:45.548Z,,default,2,0,A,NO,B,0,666,691,YES,INCONGRUENT
rc,2019-05-17T18:42:45.548Z,2019-05-17T18:42:45.548Z,,default,3,0,B,NO,A,1,783,731,YES,INCONGRUENT
rc,2019-05-17T18:42:45.548Z,2019-05-17T18:42:45.548Z,,default,4,0,B,YES,A,0,617,811,NO,INCONGRUENT
rc,2019-05-17T18:42:45.548Z,2019-05-17T18:42:45.548Z,,default,5,1,A,YES,A,0,550,811,NO,CONGRUENT
rc,2019-05-17T18:42:45.548Z,2019-05-17T18:42:45.548Z,,default,6,1,B,NO,B,0,517,801,YES,CONGRUENT
rc,2019-05-17T18:42:45.548Z,2019-05-17T18:42:45.548Z,,default,7,1,B,NO,B,0,533,781,YES,CONGRUENT
rc,2019-05-17T18:42:45.548Z,2019-05-17T18:42:45.548Z,,default,8,0,B,YES,A,0,500,931,NO,INCONGRUENT
rc,2019-05-17T18:42:45.548Z,2019-05-17T18:42:45.548Z,,default,9,1,A,YES,A,0,466,751,NO,CONGRUENT
rc,2019-05-17T18:42:45.548Z,2019-05-17T18:42:45.548Z,,default,10,1,A,YES,A,0,384,711,NO,CONGRUENT
rc,2019-05-17T18:42:45.548Z,2019-05-17T18:42:45.548Z,,default,11,0,B,YES,A,0,317,1091,NO,INCONGRUENT
rc,2019-05-17T18:42:45.548Z,2019-05-17T18:42:45.548Z,,default,12,1,B,NO,B,0,450,661,YES,CONGRUENT
rc,2019-05-17T18:42:45.548Z,2019-05-17T18:42:45.548Z,,default,13,1,B,NO,B,0,433,601,YES,CONGRUENT
rc,2019-05-17T18:42:45.548Z,2019-05-17T18:42:45.548Z,,default,14,1,A,YES,B,0,533,1291,NO,INCONGRUENT
rc,2019-05-17T18:42:45.548Z,2019-05-17T18:42:45.548Z,,default,15,1,B,NO,B,0,500,531,YES,CONGRUENT
rc,2019-05-17T18:42:45.548Z,2019-05-17T18:42:45.548Z,,default,16,1,B,NO,B,0,433,451,YES,CONGRUENT
rc,2019-05-17T18:42:45.548Z,2019-05-17T18:42:45.548Z,,default,17,1,A,YES,B,0,517,1281,NO,INCONGRUENT
rc,2019-05-17T18:42:45.548Z,2019-05-17T18:42:45.548Z,,default,18,1,A,YES,B,0,551,1261,NO,INCONGRUENT
rc,2019-05-17T18:42:45.548Z,2019-05-17T18:42:45.548Z,,default,19,1,B,NO,A,0,599,1231,YES,INCONGRUENT
rc,2019-05-17T18:42:45.548Z,2019-05-17T18:42:45.548Z,,default,20,0,A,YES,A,1,466,361,NO,CONGRUENT
rc,2019-05-17T18:42:45.548Z,2019-05-17T18:42:45.548Z,,default,21,1,A,YES,B,0,500,1191,NO,INCONGRUENT
rc,2019-05-17T18:42:45.548Z,2019-05-17T18:42:45.548Z,,default,22,1,B,NO,A,0,483,1141,YES,INCONGRUENT
rc,2019-05-17T18:42:45.548Z,2019-05-17T18:42:45.548Z,,default,23,0,B,NO,B,1,467,401,YES,CONGRUENT
rc,2019-05-17T18:42:45.548Z,2019-05-17T18:42:45.548Z,,default,24,1,A,YES,B,0,484,1081,NO,INCONGRUENT
rc,2019-05-17T18:42:45.548Z,2019-05-17T18:42:45.548Z,,default,25,1,A,YES,B,0,433,1011,NO,INCONGRUENT
ucsfadmintestac521,2019-05-21T20:47:35.611Z,2019-05-21T20:47:35.611Z,,default,0,1,A,YES,A,0,2200,5000,NO,CONGRUENT
ucsfadmintestac521,2019-05-21T20:47:35.611Z,2019-05-21T20:47:35.611Z,,default,1,1,B,NO,B,0,750,5000,YES,CONGRUENT
ucsfadmintestac521,2019-05-21T20:47:35.611Z,2019-05-21T20:47:35.611Z,,default,2,1,B,NO,B,0,700,5000,YES,CONGRUENT
ucsfadmintestac521,2019-05-21T20:47:35.611Z,2019-05-21T20:47:35.611Z,,default,3,0,A,NO,B,0,1300,5000,YES,INCONGRUENT
ucsfadmintestac521,2019-05-21T20:47:35.611Z,2019-05-21T20:47:35.611Z,,default,4,1,B,NO,A,0,1116,5000,YES,INCONGRUENT
ucsfadmintestac521,2019-05-21T20:47:35.611Z,2019-05-21T20:47:35.611Z,,default,5,1,A,YES,B,0,717,5000,NO,INCONGRUENT
ucsfadmintestac521,2019-05-21T20:48:21.232Z,2019-05-21T20:48:21.232Z,,default,0,0,A,YES,A,1,1283,1033,NO,CONGRUENT
ucsfadmintestac521,2019-05-21T20:48:21.232Z,2019-05-21T20:48:21.232Z,,default,1,1,A,YES,B,0,784,1033,NO,INCONGRUENT
ucsfadmintestac521,2019-05-21T20:48:21.232Z,2019-05-21T20:48:21.232Z,,default,2,1,A,YES,B,0,700,1023,NO,INCONGRUENT
ucsfadmintestac521,2019-05-21T20:48:21.232Z,2019-05-21T20:48:21.232Z,,default,3,1,B,NO,B,0,667,1073,YES,CONGRUENT
ucsfadmintestac521,2019-05-21T20:48:21.232Z,2019-05-21T20:48:21.232Z,,default,4,1,A,YES,B,0,567,1003,NO,INCONGRUENT
ucsfadmintestac521,2019-05-21T20:48:21.232Z,2019-05-21T20:48:21.232Z,,default,5,1,A,YES,B,0,616,973,NO,INCONGRUENT
ucsfadmintestac521,2019-05-21T20:48:21.232Z,2019-05-21T20:48:21.232Z,,default,6,0,B,YES,A,0,517,933,NO,INCONGRUENT
ucsfadmintestac521,2019-05-21T20:48:21.232Z,2019-05-21T20:48:21.232Z,,default,7,1,A,YES,A,0,550,1063,NO,CONGRUENT
ucsfadmintestac521,2019-05-21T20:48:21.232Z,2019-05-21T20:48:21.232Z,,default,8,1,B,NO,A,0,733,973,YES,INCONGRUENT
ucsfadmintestac521,2019-05-21T20:48:21.232Z,2019-05-21T20:48:21.232Z,,default,9,1,A,YES,B,0,600,963,NO,INCONGRUENT
ucsfadmintestac521,2019-05-21T20:48:21.232Z,2019-05-21T20:48:21.232Z,,default,10,1,B,NO,B,0,616,1043,YES,CONGRUENT
ucsfadmintestac521,2019-05-21T20:48:21.232Z,2019-05-21T20:48:21.232Z,,default,11,1,B,NO,B,0,534,1013,YES,CONGRUENT
ucsfadmintestac521,2019-05-21T20:48:21.232Z,2019-05-21T20:48:21.232Z,,default,12,1,B,NO,A,0,683,943,YES,INCONGRUENT
ucsfadmintestac521,2019-05-21T20:48:21.232Z,2019-05-21T20:48:21.232Z,,default,13,1,A,YES,A,0,584,973,NO,CONGRUENT
ucsfadmintestac521,2019-05-21T20:48:21.232Z,2019-05-21T20:48:21.232Z,,default,14,1,A,YES,B,0,650,913,NO,INCONGRUENT
ucsfadmintestac521,2019-05-21T20:48:21.232Z,2019-05-21T20:48:21.232Z,,default,15,1,B,NO,B,0,583,923,YES,CONGRUENT
ucsfadmintestac521,2019-05-21T20:48:21.232Z,2019-05-21T20:48:21.232Z,,default,16,1,B,NO,B,0,584,863,YES,CONGRUENT
ucsfadmintestac521,2019-05-21T20:48:21.232Z,2019-05-21T20:48:21.232Z,,default,17,1,A,YES,B,0,616,873,NO,INCONGRUENT
ucsfadmintestac521,2019-05-21T20:48:21.232Z,2019-05-21T20:48:21.232Z,,default,18,1,B,NO,B,0,584,793,YES,CONGRUENT
ucsfadmintestac521,2019-05-21T20:48:21.232Z,2019-05-21T20:48:21.232Z,,default,19,1,B,NO,B,0,484,713,YES,CONGRUENT
ucsfadmintestac521,2019-05-21T20:48:21.232Z,2019-05-21T20:48:21.232Z,,default,20,1,A,YES,A,0,534,623,NO,CONGRUENT
ucsfadmintestac521,2019-05-21T20:48:21.232Z,2019-05-21T20:48:21.232Z,,default,21,1,B,NO,A,0,567,823,YES,INCONGRUENT
ucsfadmintestac521,2019-05-21T20:48:21.232Z,2019-05-21T20:48:21.232Z,,default,22,0,B,YES,A,0,634,763,NO,INCONGRUENT
ucsfadmintestac521,2019-05-21T20:48:21.232Z,2019-05-21T20:48:21.232Z,,default,23,1,B,NO,A,0,650,803,YES,INCONGRUENT
ucsfadmintestac521,2019-05-21T20:48:21.232Z,2019-05-21T20:48:21.232Z,,default,24,0,A,YES,A,1,600,523,NO,CONGRUENT
ucsfadmintestac521,2019-05-21T20:48:21.232Z,2019-05-21T20:48:21.232Z,,default,25,0,A,YES,A,1,600,563,NO,CONGRUENT